Folder: Determination-of-Trace-Organic-Contaminant-Concentration-via-Machine-Classification-of-Raman-Spectra/Finalized Code/Tuned Standard Models/RAMAN Data MITACs/Bulk Carbon Ring Identification

Note: Finalized Code/Tuned Standard Models/RAMAN Data MITACs/Bulk Carbon Ring Identification/Copy of PureOliveOil.txt
#Wave		#Intensity
2964.052734	107734.781250
2961.919922	109621.164063
2959.786133	110794.328125
2957.652344	111627.328125
2955.516602	112318.718750
2953.381836	113498.257813
2951.245117	113710.796875
2949.108398	115448.609375
2946.971680	118329.453125
2944.833008	122493.273438
2942.694336	126171.523438
2940.555664	131271.250000
2938.416016	135231.156250
2936.275391	137980.109375
2934.134766	140618.156250
2931.993164	141949.015625
2929.850586	142388.750000
2927.708008	143444.093750
2925.564453	142920.093750
2923.419922	143298.750000
2921.275391	143489.109375
2919.129883	143779.156250
2916.984375	145039.109375
2914.837891	145858.671875
2912.691406	146484.093750
2910.542969	147947.390625
2908.394531	149544.281250
2906.246094	150688.359375
2904.096680	152552.296875
2901.946289	153473.656250
2899.795898	153806.359375
2897.644531	154711.781250
2895.492188	155348.218750
2893.339844	154883.078125
2891.186523	154633.265625
2889.032227	152686.453125
2886.877930	150236.812500
2884.723633	146752.125000
2882.567383	142482.781250
2880.411133	139698.578125
2878.254883	135879.250000
2876.096680	134716.562500
2873.938477	133308.781250
2871.780273	131615.718750
2869.621094	129718.351563
2867.460938	128444.570313
2865.300781	129180.289063
2863.139648	131568.937500
2860.977539	134145.125000
2858.815430	137206.921875
2856.652344	140859.828125
2854.488281	144339.171875
2852.324219	146364.578125
2850.159180	145718.031250
2847.994141	137965.625000
2845.828125	125525.125000
2843.661133	112692.906250
2841.494141	103237.664063
2839.326172	96768.335938
2837.157227	92379.835938
2834.988281	88832.953125
2832.818359	86498.789063
2830.648438	84707.453125
2828.477539	82513.406250
2826.305664	81272.281250
2824.133789	79746.429688
2821.960938	79185.203125
2819.787109	78860.281250
2817.613281	77615.851563
2815.438477	77613.296875
2813.262695	76909.054688
2811.086914	76423.773438
2808.911133	76197.304688
2806.733398	76093.335938
2804.555664	75753.890625
2802.376953	75687.812500
2800.198242	75136.117188
2798.018555	75078.234375
2795.838867	75007.820313
2793.657227	74719.367188
2791.476563	74007.601563
2789.293945	73437.726563
2787.111328	73427.148438
2784.927734	73079.000000
2782.744141	73185.953125
2780.559570	72574.765625
2778.374023	72714.835938
2776.188477	72646.351563
2774.001953	72635.976563
2771.814453	72350.085938
2769.626953	71912.968750
2767.438477	71959.695313
2765.250000	71634.406250
2763.060547	71879.039063
2760.870117	71547.125000
2758.679688	71492.710938
2756.488281	71514.453125
2754.295898	71413.500000
2752.103516	71337.578125
2749.910156	71506.914063
2747.715820	71412.835938
2745.521484	71764.718750
2743.326172	71748.875000
2741.130859	71576.539063
2738.934570	72032.351563
2736.737305	72149.031250
2734.539063	72859.335938
2732.340820	72503.359375
2730.142578	72634.507813
2727.942383	72624.062500
2725.742188	73035.757813
2723.541992	72742.335938
2721.340820	72678.679688
2719.138672	72691.953125
2716.935547	72536.773438
2714.732422	71974.828125
2712.528320	71628.992188

Note: README.md
# Determination-of-Trace-Organic-Contaminant-Concentration-via-Machine-Classification-of-Raman-Spectra
Codebase and Data for "Determination-of-Trace-Organic-Contaminant-Concentration-via-Machine-Classification-of-Raman-Spectra."

Code files are given as Jupyter notebooks. Raw spectral data is availible as .csv files in all main folders under subfolder "RAMAN Data MITACs". Generated figures and raw data tables are availible in folder "Tables and Figures". Permission for usage of figures or diagrams is allowable with notification and citation. All files named "~Iterable.ipynb" in the folder "CNN Models" are CNN cross validation notebooks and are made to run on Niagara supercomputer(80 core), this may result in unintended phenomena if run on standard computers. "Key Functions.ipynb" contains all user defined functions for the codebase, a .py copy of this file is needed in all major folders. File paths used in "Key Functions.ipynb" may vary when downloaded, if this is the case please make the appropriate changes and update all the folders with "Key Functions.py".

File: Copy of DMCAnoBL.txt
#Wave		#Intensity
1724.09	61.7212
1720.17	12.773
1716.25	-81.1176
1712.33	137.199
1708.4	92.1124
1704.47	38.3381
1700.54	-28.1103
1696.6	-101.003
1692.66	45.8994
1688.71	37.3503
1684.77	190.675
1680.82	96.383
1676.86	207.705
1672.91	128.532
1668.95	57.4717
1664.98	114.714
1661.01	23.5131
1657.04	59.8875
1653.07	-187.621
1649.09	-62.4557
1645.11	41.6206
1641.13	92.1458
1637.14	-118.028
1633.15	150.381
1629.16	6.179594
1625.16	5.998641
1621.16	-79.4024
1617.16	-85.5708
1613.15	-87.1195
1609.14	77.4741
1605.12	45.7336
1601.11	38.9219
1597.09	156.158
1593.06	73.1356
1589.04	94.6049
1585	37.6365
1580.97	55.5956
1576.93	99.101
1572.89	106.6
1568.85	68.4483
1564.8	105.403
1560.75	123.978
1556.69	274.087
1552.64	113.831
1548.57	151.529
1544.51	65.8594
1540.44	111.692
1536.37	-68.2612
1532.29	-45.8529
1528.21	22.1894
1524.13	-56.9204
1520.05	-112.225
1515.96	41.2691
1511.87	-105.454
1507.77	41.4615
1503.67	296.663
1499.57	227.896
1495.46	337.838
1491.35	977.257
1487.24	1140.27
1483.12	2020.31
1479	3124.97
1474.87	4149.44
1470.75	4932.23
1466.62	5447.41
1462.48	5541.49
1458.34	6360.76
1454.2	7417.7
1450.05	9473.05
1445.91	12279.4
1441.75	15400.8
1437.6	9643.99
1433.44	5405.92
1429.27	3031.84
1425.11	1864.58
1420.94	1273.09
1416.76	950.53
1412.58	762.721
1408.4	1352.25
1404.22	1365.69
1400.03	576.311
1395.84	104.892
1391.64	9.941768
1387.44	252.554
1383.24	459.943
1379.03	1493.77
1374.82	1637.4
1370.61	959.33
1366.39	694.039
1362.17	753.234
1357.95	945.212
1353.72	2018.44
1349.48	3829.5
1345.25	3854.45
1341.01	2600.58
1336.77	1941.36
1332.52	1467.39
1328.27	1325.8
1324.01	1401.12
1319.75	1271.97
1315.49	1583.73
1311.23	1672.41
1306.96	1902.48
1302.68	2648.74
1298.41	2601.61
1294.13	1956.28
1289.84	2234.18
1285.55	2483.32
1281.26	2896.35
1276.96	4082.47
1272.66	5636.71
1268.36	7222.7
1264.05	7890.34
1259.74	8034.72
1255.43	8178.74
1251.11	6443.55
1246.79	4679.14
1242.46	4167.38
1238.13	3619.73
1233.79	3050.02
1229.46	2903.61
1225.11	2518.91
1220.77	1928.64
1216.42	1483.53
1212.06	1313.53
1207.71	965.44
1203.34	1352.82
1198.98	2539.8
1194.61	684.513
1190.24	6.908977
1185.86	69.3075
1181.48	944.626
1177.09	2187.85
1172.7	556.159
1168.31	216.202
1163.91	774.858
1159.51	1195.73
1155.11	574.912
1150.7	89.3915
1146.29	34.2784
1141.87	-51.6045
1137.45	336.165
1133.02	1864.45
1128.59	3237.33
1124.16	1281.5
1119.72	612.741
1115.28	341.822
1110.84	135.999
1106.39	270.192
1101.93	526.443
1097.48	803.742
1093.02	655.559
1088.55	684.866
1084.08	690.583
1079.61	919.639
1075.13	1973.87
1070.65	2380.19
1066.16	1498.87
1061.67	2892.22
1057.18	4358.43
1052.68	5523.12
1048.18	5721.37
1043.67	4222.3
1039.16	4431.8
1034.64	3813.52
1030.12	4834.96
1025.6	8248.64
1021.07	3875.07
1016.54	1459.78
1012	560.475
1007.46	205.85
1002.92	26.2549
998.371	40.9008
993.818	325.763
989.261	886.649
984.699	3178.69
980.134	3638.11
975.563	869.174
970.989	135.403
966.411	91.5895
961.828	44.9859
957.241	-130.225
952.649	-47.599
948.054	-125.904
943.454	-20.4371
938.85	71.6159
934.241	27.266
929.628	252.8
925.011	210.658
920.39	209.805
915.764	205.072
911.133	-61.4094
906.498	34.2489
901.859	345.243
897.216	896.856
892.568	913.109
887.916	885.775
883.259	678.307
878.598	513.542
873.933	1215.28
869.263	1860.18
864.589	1711.56
859.91	5259.84
855.227	2272.81
850.539	1432.97
845.847	2456.36
841.15	3794.48
836.449	5359.73
831.744	5010.23
827.034	1897.54
822.319	1081.29
817.601	987.375
812.877	3089.3
808.149	2080.37
803.416	975.936
798.68	953.325
793.938	1394.2
789.191	3100.68
784.441	10091
779.687	31644.4
774.927	7020.87
770.162	2415.93
765.394	1176.11
760.62	794.922
755.842	505.048
751.06	431.003
746.272	214.308
741.48	306.115
736.684	111.698
731.883	38.1859
727.077	-76.5317
722.268	61.4094
717.452	124.401
712.633	-11.4633
707.809	85.5818
702.979	43.5764
698.146	11.093
693.309	12.6807
688.466	-34.0976
683.618	20.7576
678.766	25.0588
673.909	21.9845
669.048	-56.0027
664.182	20.5357
659.311	-55.3385
654.435	-3.248602
649.555	44.0593
644.669	146.006
639.779	380.178
634.885	1377.24
629.985	296.514
625.082	127.094
620.173	92.2675
615.26	-48.6515
610.341	-37.3018
605.418	13.6867

File: Copy of PureCanolaOilnoBL.txt
#Wave		#Intensity
2964.05	2.136533
2955.52	21550.5
2946.97	44202.2
2938.42	100257
2929.85	126627
2921.28	136742
2912.69	155920
2904.1	178953
2895.49	186600
2886.88	174075
2878.25	140903
2869.62	127899
2860.98	142362
2852.32	176470
2843.66	89654.6
2834.99	31200.4
2826.31	12325.7
2817.61	4850.27
2808.91	2158.87
2800.2	1978.18
2791.48	959.5
2782.74	282.97
2774	343.432
2765.25	407.458
2756.49	1052.43
2747.72	2389.87
2738.93	5947.56
2730.14	9019.37
2721.34	9419.16
2712.53	8050.86
2703.71	5664.3
2694.88	4213.68
2686.03	4451.01
2677.18	4497.03
2668.32	3762.11
2659.45	3556.26
2650.56	3056.8
2641.67	2722.91
2632.77	2421.88
2623.86	2031.24
2614.93	2061.49
2606	2092.1
2597.06	1727.57
2588.1	1306.77
2579.14	1202.37
2570.17	798.939
2561.18	205.106
2552.19	466.403
2543.18	404.542
2534.17	10.5214
2525.14	-20.8827
2516.11	-87.8238
2507.06	-168.479
2498	95.2915
2488.94	65.1429
2479.86	-193.528
2470.77	191.826
2461.67	94.9116
2452.56	423.271
2443.44	569.279
2434.31	435.261
2425.17	374.931
2416.02	548.973
2406.86	425.089
2397.69	357.072
2388.51	240.62
2379.31	42.4134
2370.11	6.177282
2360.9	-161.3
2351.67	-28.8466
2342.44	142.931
2333.19	81.676
2323.93	130.45
2314.66	133.346
2305.38	363.365
2296.09	124.475
2286.79	232.119
2277.48	197.931
2268.16	382.585
2258.83	160.564
2249.48	130.306
2240.13	-63.9642
2230.76	181.333
2221.39	-68.2458
2212	50.4608
2202.6	207.022
2193.19	369.873
2183.77	450.48
2174.34	187.66
2164.89	31.9189
2155.44	190.611
2145.97	84.2885
2136.5	58.6664
2127.01	72.6837
2117.51	335.911
2108	69.8129
2098.48	157.725
2088.95	5.243179
2079.4	142.157
2069.85	-9.826227
2060.28	216.334
2050.7	65.6697
2041.11	274.466
2031.51	-6.863556
2021.9	-85.9147
2012.28	-150.723
2002.64	118.741
1992.99	-343.887
1983.34	-158.041
1973.67	-26.3367
1963.98	-104.069
1954.29	-86.7004
1944.59	290.87
1934.87	73.2065
1925.14	272.257
1915.4	364.985
1905.65	143.25
1895.88	25.9978
1886.11	444.415
1876.32	210.255
1866.52	342.622
1856.71	473.634
1846.89	214.888
1837.06	-105.448
1827.21	11.13
1817.35	425.44
1807.48	470.6
1797.6	522.508
1787.7	493.455
1777.8	620.768
1767.88	1203.89
1757.95	3325.69
1748	6280.55
1738.05	4426.4
1728.08	1809.86
1718.1	1073.31
1708.11	1035.15
1698.1	1143.54
1688.09	1023.31
1678.06	2156.37
1668.02	7315.2
1657.96	30456.7
1647.9	16546.8
1637.82	4075.58
1627.73	1879.19
1617.62	915.969
1607.51	613.69
1597.38	213.256
1587.24	127.516
1577.08	-109.208
1566.91	13.0433
1556.73	91.1629
1546.54	-128.425
1536.34	-147.825
1526.12	107.433
1515.89	560.649
1505.65	776.851
1495.39	1661.78
1485.12	3193.74
1474.84	7765.87
1464.54	18978.7
1454.24	31636.4
1443.92	42009.3
1433.58	34627.8
1423.23	9854.44
1412.88	4971.35
1402.5	3683.21
1392.12	1411.15
1381.72	1258.67
1371.3	2628.9
1360.88	2042.25
1350.44	2571.22
1339.99	3134.42
1329.52	5734.96
1319.04	10880
1308.55	19888.1
1298.04	23324.2
1287.53	13221
1276.99	14905.6
1266.45	19080.8
1255.89	14733.9
1245.31	7758.7
1234.73	3920.24
1224.13	2024.98
1213.51	1162.13
1202.88	875.208
1192.24	589.317
1181.59	381.011
1170.92	192.09
1160.24	-228.327
1149.54	-37.0557
1138.83	329.436
1128.11	1411.61
1117.37	3715.74
1106.62	3487.96
1095.85	6683.25
1085.07	11666.6
1074.28	11472.2
1063.47	10602.3
1052.65	5306.5
1041.82	3965.52
1030.97	3694.97
1020.1	3223.53
1009.23	2567.76
998.334	1702.14
987.428	2005.13
976.508	5445.15
965.572	4687.71
954.625	2359.84
943.66	2000.34
932.684	1833.32
921.691	1966.1
910.686	2256.61
899.664	2185.05
888.629	3329.89
877.58	3252.13
866.516	4030.61
855.438	3165.68
844.344	3075.1
833.236	2028.62
822.113	1050.16
810.977	821.145
799.824	305.367
788.658	-10.7337
777.477	28.1427
766.281	145.911
755.07	304.099
743.846	345.39
732.605	825.332
721.352	951.892
710.08	983.086
698.797	456.302
687.496	375.755
676.182	-60.0615
664.854	-180.981
653.508	-111.851
642.148	23.0514
630.775	280.552
619.385	306.553
607.98	824.374
596.561	755.463
585.127	686.691
573.676	305.113
562.211	33.7491
550.73	-71.7256
539.234	142.873
527.725	209.374
516.199	345.778
504.658	399.639
493.102	572.665
481.529	413.013
469.941	57.1205
458.34	-119.597
446.721	-134.491
435.088	30.5456
423.439	423.537

File: Copy of PureCyclohexane.txt
#Wave		#Intensity
2964.05	40827.9
2955.52	60122.5
2946.97	108976
2938.42	269880
2929.85	194658
2921.28	246233
2912.69	131399
2904.1	103238
2895.49	107865
2886.88	101944
2878.25	73939.3
2869.62	81678.4
2860.98	117067
2852.32	311469
2843.66	93689.3
2834.99	37596.7
2826.31	25235.9
2817.61	19148.6
2808.91	16572.2
2800.2	17980.7
2791.48	15144.4
2782.74	13919.8
2774	13669.4
2765.25	13231.9
2756.49	12929.4
2747.72	12628.7
2738.93	12769.7
2730.14	12970.3
2721.34	13126.4
2712.53	14155.4
2703.71	16731.6
2694.88	20216
2686.03	19117.7
2677.18	17917.3
2668.32	25327.2
2659.45	23081
2650.56	15954.2
2641.67	14757.1
2632.77	21229.8
2623.86	15351.2
2614.93	15241.1
2606	16557.8
2597.06	16131.5
2588.1	15140.1
2579.14	15632.6
2570.17	14427.7
2561.18	14167.4
2552.19	14253.1
2543.18	14327.4
2534.17	14706.4
2525.14	15061.3
2516.11	14600
2507.06	14715.4
2498	14673.2
2488.94	14928.7
2479.86	14922.5
2470.77	15304.1
2461.67	16125.8
2452.56	16417.7
2443.44	15818
2434.31	15496.6
2425.17	15514.7
2416.02	15514.3
2406.86	15569.2
2397.69	15711.9
2388.51	15671
2379.31	16113.1
2370.11	16631
2360.9	16552.3
2351.67	17495.8
2342.44	17164
2333.19	16685.4
2323.93	16939.2
2314.66	17043.1
2305.38	17000.7
2296.09	16695.9
2286.79	17076.8
2277.48	17236.6
2268.16	17385.2
2258.83	17755.3
2249.48	18181
2240.13	18065.1
2230.76	18659.4
2221.39	18873.3
2212	18744.1
2202.6	18656.4
2193.19	18650.4
2183.77	18512.3
2174.34	18989.8
2164.89	19415.5
2155.44	19460.1
2145.97	19566.5
2136.5	19698.9
2127.01	19866.7
2117.51	20272.9
2108	20200.8
2098.48	20400.6
2088.95	20388
2079.4	20635
2069.85	20735.6
2060.28	21244.8
2050.7	21659.2
2041.11	21572.2
2031.51	21737.3
2021.9	21759.1
2012.28	22064.1
2002.64	22231
1992.99	22377.8
1983.34	22955.1
1973.67	23245.7
1963.98	23296
1954.29	23230.1
1944.59	23436.1
1934.87	23332.1
1925.14	23662.2
1915.4	23574.4
1905.65	23688.9
1895.88	23781.7
1886.11	23863
1876.32	23890.1
1866.52	23939.4
1856.71	23867.8
1846.89	23905.7
1837.06	23954.7
1827.21	23490.8
1817.35	23526.9
1807.48	23294.5
1797.6	23249.1
1787.7	23108
1777.8	23101.9
1767.88	22989.4
1757.95	22761.8
1748	22655.8
1738.05	22556.1
1728.08	22305.7
1718.1	22361.1
1708.11	22114.4
1698.1	22173.8
1688.09	22073
1678.06	21923.7
1668.02	21671.6
1657.96	21576.5
1647.9	21377.8
1637.82	21370.1
1627.73	21253.8
1617.62	21298.4
1607.51	21108.7
1597.38	21123.7
1587.24	21272.2
1577.08	21229.1
1566.91	21233
1556.73	21144.9
1546.54	21125.4
1536.34	21295.1
1526.12	21264.6
1515.89	21408.3
1505.65	21900.4
1495.39	22469
1485.12	23938.6
1474.84	24790.6
1464.54	29023.9
1454.24	36804.6
1443.92	62303.2
1433.58	36363.2
1423.23	29718.9
1412.88	24706.6
1402.5	23472.8
1392.12	23106.7
1381.72	23058.3
1371.3	23460.3
1360.88	24255.5
1350.44	28778.5
1339.99	26588.4
1329.52	24246
1319.04	23978.6
1308.55	24083.7
1298.04	25356.9
1287.53	27923.4
1276.99	36659
1266.45	63472.1
1255.89	35254.9
1245.31	27697
1234.73	25763.9
1224.13	24932.6
1213.51	24791.8
1202.88	24748.8
1192.24	24808.6
1181.59	24853.3
1170.92	25524.9
1160.24	31288.7
1149.54	27172.7
1138.83	26089.1
1128.11	26206.8
1117.37	26469.6
1106.62	26854.8
1095.85	26972.7
1085.07	27234.2
1074.28	27774.5
1063.47	29064.9
1052.65	30985.8
1041.82	36684.1
1030.97	63880.8
1020.1	45416.3
1009.23	32908
998.334	30253
987.428	29178.5
976.508	28907.1
965.572	28878.5
954.625	29055.4
943.66	29177.3
932.684	29286.1
921.691	29726.1
910.686	29850
899.664	29983.5
888.629	29990.3
877.58	30129.4
866.516	30293.2
855.438	30689.3
844.344	30840.2
833.236	31243.4
822.113	31849.5
810.977	34674.3
799.824	75951.9
788.658	35254.6
777.477	32676
766.281	31692.3
755.07	31270.5
743.846	31099.8
732.605	30813.5
721.352	30845.5
710.08	30969.1
698.797	31117.1
687.496	30933.3
676.182	30707.7
664.854	30696.2
653.508	30587.2
642.148	30674.7
630.775	30738.4
619.385	30625.2
607.98	30498.3
596.561	30104.9
585.127	29766.5
573.676	29657.6
562.211	29607.1
550.73	29517.6
539.234	29246.5
527.725	29177.5
516.199	28680.2
504.658	28215.3
493.102	27997.1
481.529	27997
469.941	27752.9
458.34	27636.3
446.721	27350.4
435.088	28372.7
423.439	30045.2

File: Copy of PureCyclohexanenoBL.txt
#Wave		#Intensity
2964.05	11.03
2955.52	21473.6
2946.97	72423.5
2938.42	235347
2929.85	162058
2921.28	215476
2912.69	102392
2904.1	75885.5
2895.49	82068.7
2886.88	77605.9
2878.25	50960.5
2869.62	59961.8
2860.98	96516.6
2852.32	291991
2843.66	75192
2834.99	19991.2
2826.31	8436.75
2817.61	3073.57
2808.91	1143.02
2800.2	3122.75
2791.48	787.119
2782.74	-3.221371
2774	118.287
2765.25	-5.531540
2756.49	-48.3358
2747.72	-139.256
2738.93	165.55
2730.14	488.077
2721.34	727.87
2712.53	1806.2
2703.71	4400.75
2694.88	7876.15
2686.03	6744.58
2677.18	5489.72
2668.32	12826.8
2659.45	10492.5
2650.56	3264.34
2641.67	1955.33
2632.77	8307.53
2623.86	2302.02
2614.93	2060.13
2606	3241.82
2597.06	2678.81
2588.1	1550.28
2579.14	1906.21
2570.17	566.251
2561.18	173.23
2552.19	129.048
2543.18	77.0257
2534.17	333.402
2525.14	569.749
2516.11	-5.920893
2507.06	-0.778813
2498	-149.006
2488.94	4.364715
2479.86	-100.161
2470.77	186.543
2461.67	916.411
2452.56	1119.11
2443.44	432.491
2434.31	25.9366
2425.17	-39.9296
2416.02	-123.674
2406.86	-151.863
2397.69	-92.6846
2388.51	-218.01
2379.31	138.244
2370.11	568.271
2360.9	399.249
2351.67	1249.42
2342.44	820.904
2333.19	241.816
2323.93	390.898
2314.66	385.536
2305.38	229.151
2296.09	-194.8
2286.79	61.7965
2277.48	91.7833
2268.16	105.21
2258.83	334.614
2249.48	614.056
2240.13	346.375
2230.76	783.667
2221.39	835.303
2212	538.888
2202.6	279.37
2193.19	97.0841
2183.77	-221.327
2174.34	72.231
2164.89	310.891
2155.44	165.597
2145.97	80.0314
2136.5	18.7585
2127.01	-8.299481
2117.51	202.69
2108	-64.6232
2098.48	-59.1855
2088.95	-264.858
2079.4	-208.822
2069.85	-296.561
2060.28	27.7317
2050.7	261.214
2041.11	-2.092107
2031.51	-7.984944
2021.9	-151.309
2012.28	-4.816007
2002.64	10.5966
1992.99	13.5961
1983.34	455.219
1973.67	618.889
1963.98	551.34
1954.29	377.094
1944.59	484.717
1934.87	292.611
1925.14	545.143
1915.4	390.575
1905.65	449.268
1895.88	497.32
1886.11	545.076
1876.32	549.89
1866.52	588.127
1856.71	516.55
1846.89	565.531
1837.06	636.289
1827.21	204.824
1817.35	283.528
1807.48	103.711
1797.6	120.267
1787.7	50.3393
1777.8	123.904
1767.88	99.0511
1757.95	-33.4591
1748	-37.5665
1738.05	-29.3271
1728.08	-166.343
1718.1	7.127578
1708.11	-117.594
1698.1	66.8205
1688.09	93.3199
1678.06	72.7882
1668.02	-49.8968
1657.96	-15.8512
1647.9	-86.5713
1637.82	31.8188
1627.73	38.7792
1617.62	202.898
1607.51	128.119
1597.38	252.822
1587.24	504.764
1577.08	558.168
1566.91	650.942
1556.73	643.3
1546.54	695.099
1536.34	926.42
1526.12	947.195
1515.89	1131.31
1505.65	1652.53
1495.39	2238.3
1485.12	3712.93
1474.84	4557.42
1464.54	8770.48
1454.24	16517.8
1443.92	41970
1433.58	15970.2
1423.23	9252.9
1412.88	4154.45
1402.5	2821.44
1392.12	2343.15
1381.72	2169.95
1371.3	2434.73
1360.88	3080.84
1350.44	7443.08
1339.99	5081.26
1329.52	2556.53
1319.04	2096.85
1308.55	2000.45
1298.04	3063.48
1287.53	5411.89
1276.99	13922.3
1266.45	40503.8
1255.89	12049.4
1245.31	4249.6
1234.73	2070.67
1224.13	990.486
1213.51	598.608
1202.88	303.03
1192.24	109.917
1181.59	-98.0806
1170.92	321.841
1160.24	5835.8
1149.54	1472.61
1138.83	145.093
1128.11	22.7648
1117.37	50.1267
1106.62	204.99
1095.85	98.0664
1085.07	140.875
1074.28	468.82
1063.47	1553.67
1052.65	3275.89
1041.82	8782.71
1030.97	35795.1
1020.1	17153.6
1009.23	4475.71
998.334	1658.21
987.428	428.272
976.508	8.325984
965.572	-162.203
954.625	-120.859
943.66	-128.533
932.684	-143.56
921.691	177.87
910.686	188.318
899.664	212.94
888.629	115.17
877.58	153.773
866.516	220.889
855.438	523.815
844.344	584.976
833.236	901.822
822.113	1425.07
810.977	4170.7
799.824	45373
788.658	4604.77
777.477	1960.28
766.281	916.239
755.07	440.691
743.846	223.836
732.605	-99.9326
721.352	-95.4296
710.08	12.2726
698.797	157.325
687.496	-14.6759
676.182	-212.15
664.854	-177.564
653.508	-220.777
642.148	-46.3421
630.775	126.563
619.385	146.1
607.98	175.858
596.561	-36.8631
585.127	-171.334
573.676	-54.479
562.211	139.915
550.73	310.62
539.234	309.433
527.725	512.839
516.199	280.955
504.658	62.3372
493.102	56.3789
481.529	216.198
469.941	57.2822
458.34	-75.4842
446.721	-510.927
435.088	191.068
423.439	1328.26

File: Copy of PureSoybeanOilnoBL.txt
#Wave		#Intensity
2964.05	3.714189
2955.52	23093
2946.97	45432.4
2938.42	104176
2929.85	129621
2921.28	139944
2912.69	154370
2904.1	172562
2895.49	183034
2886.88	171968
2878.25	141874
2869.62	130291
2860.98	142671
2852.32	173164
2843.66	88783.5
2834.99	30967.2
2826.31	12612.4
2817.61	4989.97
2808.91	1727.19
2800.2	1151.15
2791.48	859.31
2782.74	314.039
2774	13.4637
2765.25	89.3619
2756.49	937.538
2747.72	2697.79
2738.93	5981.82
2730.14	9400.3
2721.34	9796.64
2712.53	8145.97
2703.71	5749.89
2694.88	4933.82
2686.03	4854.61
2677.18	5082.9
2668.32	4612.05
2659.45	4256.27
2650.56	3759.66
2641.67	3463.77
2632.77	3062.96
2623.86	2471.51
2614.93	2717.36
2606	2581.14
2597.06	2207.96
2588.1	1831.02
2579.14	1586.77
2570.17	1138.21
2561.18	1215.79
2552.19	706.86
2543.18	922.77
2534.17	625.52
2525.14	465.638
2516.11	187.115
2507.06	123.844
2498	142.059
2488.94	88.8121
2479.86	84.9106
2470.77	306.472
2461.67	368.54
2452.56	470.501
2443.44	475.632
2434.31	398.361
2425.17	170.264
2416.02	753.568
2406.86	138.252
2397.69	419.026
2388.51	174.618
2379.31	56.6385
2370.11	119.83
2360.9	-119.333
2351.67	-86.7007
2342.44	25.008
2333.19	18.5704
2323.93	38.6425
2314.66	-12.5009
2305.38	104.821
2296.09	78.3185
2286.79	208.361
2277.48	-125.504
2268.16	246.852
2258.83	324.71
2249.48	-368.007
2240.13	72.296
2230.76	293.989
2221.39	190.819
2212	-85.2858
2202.6	220.645
2193.19	274.128
2183.77	584.516
2174.34	305.635
2164.89	165.029
2155.44	166.619
2145.97	112.273
2136.5	150.47
2127.01	422.655
2117.51	418.718
2108	626.536
2098.48	523.648
2088.95	404.673
2079.4	280.189
2069.85	276.268
2060.28	381.075
2050.7	344.76
2041.11	30.7794
2031.51	170.095
2021.9	226.614
2012.28	-65.2413
2002.64	-38.9284
1992.99	-274.586
1983.34	43.9753
1973.67	145.617
1963.98	-225.031
1954.29	-175.918
1944.59	89.2541
1934.87	228.394
1925.14	349.287
1915.4	358.861
1905.65	379.898
1895.88	90.0208
1886.11	304.978
1876.32	4.593652
1866.52	164.94
1856.71	8.964581
1846.89	97.1641
1837.06	-77.596
1827.21	103.324
1817.35	-80.5073
1807.48	596.638
1797.6	452.241
1787.7	577.869
1777.8	461.99
1767.88	1146.29
1757.95	3284.38
1748	7077.12
1738.05	5087.46
1728.08	1950.89
1718.1	1042.45
1708.11	944.154
1698.1	1448.04
1688.09	1165.51
1678.06	2643.62
1668.02	11151.4
1657.96	38424.3
1647.9	18326.3
1637.82	5665.58
1627.73	2348.41
1617.62	1285.49
1607.51	708.987
1597.38	134.611
1587.24	81.7548
1577.08	-301.41
1566.91	-168.482
1556.73	-111.999
1546.54	-11.4155
1536.34	-27.721
1526.12	52.9829
1515.89	257.72
1505.65	928.224
1495.39	1684.26
1485.12	3193.58
1474.84	8175.08
1464.54	19818.5
1454.24	32141.8
1443.92	43287.3
1433.58	35059.6
1423.23	11032.3
1412.88	5107.59
1402.5	3924.84
1392.12	2087.98
1381.72	1797.43
1371.3	2721.35
1360.88	2471.7
1350.44	2889.65
1339.99	3434.56
1329.52	6035.88
1319.04	11477.1
1308.55	20032
1298.04	23801.5
1287.53	14521
1276.99	18305.9
1266.45	24312.5
1255.89	19553
1245.31	10145.7
1234.73	4975.77
1224.13	2980.78
1213.51	1941.48
1202.88	1267.76
1192.24	967.449
1181.59	471.944
1170.92	47.0058
1160.24	8.179540
1149.54	-100.198
1138.83	-42.6717
1128.11	1528
1117.37	3035.48
1106.62	4706.86
1095.85	6820.83
1085.07	10862.6
1074.28	11938.2
1063.47	10464.6
1052.65	4629.41
1041.82	3512.33
1030.97	3205.65
1020.1	2931.13
1009.23	2009.79
998.334	1774.21
987.428	2342.4
976.508	7298.58
965.572	6428.21
954.625	3355.65
943.66	2577.41
932.684	2371.5
921.691	2495.92
910.686	3035.39
899.664	3015.56
888.629	3323.62
877.58	3552.88
866.516	3625.37
855.438	2899.97
844.344	3476.05
833.236	2828.02
822.113	1155.54
810.977	354.56
799.824	-45.6822
788.658	-77.7015
777.477	-55.2117
766.281	-64.6233
755.07	83.3814
743.846	405.765
732.605	1129.29
721.352	1239.26
710.08	647.684
698.797	193.056
687.496	45.3474
676.182	-296.176
664.854	-158.245
653.508	-158.398
642.148	20.5856
630.775	94.0234
619.385	233.457
607.98	661.126
596.561	969.066
585.127	451.442
573.676	523.77
562.211	379.598
550.73	11.7874
539.234	118.138
527.725	279.845
516.199	276.717
504.658	43.8004
493.102	42.7252
481.529	79.0346
469.941	-76.333
458.34	-112.514
446.721	-13.8608
435.088	91.1085
423.439	180.844