Folder: Determination-of-Trace-Organic-Contaminant-Concentration-via-Machine-Classification-of-Raman-Spectra/Finalized Code/Tuned Standard Models/RAMAN Data MITACs/Bulk Carbon Ring Identification (part 2)

File: Copy of PureToluenenoBL.txt
#Wave		#Intensity
2964.05	-5.007612
2955.52	13902.8
2946.97	28050
2938.42	45923.9
2929.85	99878.9
2921.28	205637
2912.69	157166
2904.1	61168.9
2895.49	28931.5
2886.88	27363.7
2878.25	40314.2
2869.62	47032.1
2860.98	45445.3
2852.32	25403.5
2843.66	8198.78
2834.99	1915.67
2826.31	1143.46
2817.61	8.535956
2808.91	523.806
2800.2	151.377
2791.48	-140.978
2782.74	1387.48
2774	2162.85
2765.25	2013.54
2756.49	1921.53
2747.72	3986.32
2738.93	15676.6
2730.14	12569.2
2721.34	2345.93
2712.53	1157.08
2703.71	1721.06
2694.88	497.553
2686.03	51.0844
2677.18	75.2328
2668.32	688.118
2659.45	2196.62
2650.56	484.118
2641.67	485.146
2632.77	152.316
2623.86	807.295
2614.93	2029.33
2606	6035.07
2597.06	2433.78
2588.1	5631.37
2579.14	4583.53
2570.17	2757.18
2561.18	2592.6
2552.19	4228.69
2543.18	2651.44
2534.17	1327.71
2525.14	530.458
2516.11	188.589
2507.06	160.804
2498	160.136
2488.94	582.721
2479.86	502.289
2470.77	577.57
2461.67	862.369
2452.56	553.313
2443.44	728.419
2434.31	2528.34
2425.17	2108.56
2416.02	2275.52
2406.86	1622.61
2397.69	1025.91
2388.51	1367.17
2379.31	815.68
2370.11	665.499
2360.9	704.03
2351.67	684.009
2342.44	322.731
2333.19	216.276
2323.93	121.344
2314.66	533.705
2305.38	157.237
2296.09	-256.58
2286.79	76.6221
2277.48	18.501
2268.16	-35.8345
2258.83	337.893
2249.48	62.9478
2240.13	398.249
2230.76	-6.364286
2221.39	-28.2692
2212	68.103
2202.6	271.667
2193.19	-136.342
2183.77	-4.037537
2174.34	46.105
2164.89	85.0083
2155.44	6.490869
2145.97	142.345
2136.5	108.504
2127.01	208.955
2117.51	382.576
2108	121.593
2098.48	59.2372
2088.95	56.0991
2079.4	114.283
2069.85	1.407079
2060.28	66.9183
2050.7	17.2774
2041.11	57.6247
2031.51	195.101
2021.9	-23.0537
2012.28	22.2279
2002.64	133.847
1992.99	581.107
1983.34	160.063
1973.67	-20.3059
1963.98	420.767
1954.29	446.915
1944.59	-41.8284
1934.87	227.995
1925.14	618.206
1915.4	36.7711
1905.65	35.9245
1895.88	127.184
1886.11	18.9227
1876.32	13.9238
1866.52	35.5489
1856.71	92.7412
1846.89	227.827
1837.06	81.0293
1827.21	148.651
1817.35	270.149
1807.48	443.15
1797.6	585.636
1787.7	1310.23
1777.8	616.781
1767.88	501.55
1757.95	639.339
1748	488.251
1738.05	874.102
1728.08	1072.45
1718.1	1112.63
1708.11	1030.76
1698.1	1499.66
1688.09	2057.82
1678.06	2581.48
1668.02	2242.64
1657.96	2698.77
1647.9	3940.73
1637.82	6276.43
1627.73	14329.3
1617.62	23130.7
1607.51	78600.8
1597.38	45189.6
1587.24	53805.1
1577.08	24491
1566.91	10370.4
1556.73	6701.15
1546.54	5458.08
1536.34	5050.72
1526.12	5122.23
1515.89	5303.93
1505.65	6072.62
1495.39	10280.9
1485.12	7467.1
1474.84	8223.18
1464.54	9902.64
1454.24	12315.8
1443.92	15042.4
1433.58	14750.2
1423.23	10487.8
1412.88	7101.11
1402.5	6185.21
1392.12	9355.78
1381.72	36337.1
1371.3	15473.7
1360.88	5362.68
1350.44	3293.67
1339.99	3205.66
1329.52	6093.33
1319.04	3064.09
1308.55	3356.93
1298.04	1094.06
1287.53	434.867
1276.99	413.453
1266.45	22.6495
1255.89	232.695
1245.31	1015.46
1234.73	841.259
1224.13	2513.9
1213.51	42719.3
1202.88	17072.5
1192.24	7917.37
1181.59	24239
1170.92	12601.6
1160.24	22080.9
1149.54	15864.3
1138.83	3244.91
1128.11	1134.07
1117.37	412.869
1106.62	635.32
1095.85	189.704
1085.07	1931.42
1074.28	1143.35
1063.47	803.122
1052.65	1664.1
1041.82	4122.83
1030.97	85415.1
1020.1	7876.56
1009.23	29207
998.334	66298.2
987.428	9381.3
976.508	3614.72
965.572	2165.5
954.625	609.888
943.66	120.824
932.684	199.97
921.691	-76.7414
910.686	163.169
899.664	2578.04
888.629	1814.29
877.58	452.154
866.516	455.575
855.438	1194.78
844.344	6262.06
833.236	3184.79
822.113	1836.39
810.977	6737.87
799.824	5393.14
788.658	89300.7
777.477	14332.3
766.281	1774.99
755.07	1000.55
743.846	1257.54
732.605	6438.27
721.352	2375.09
710.08	661.891
698.797	538.505
687.496	327.376
676.182	43.0768
664.854	-93.2652
653.508	465.742
642.148	1883.49
630.775	10708.1
619.385	31750.5
607.98	4649.66
596.561	927.702
585.127	213.757
573.676	36.5528
562.211	69.2559
550.73	406.119
539.234	1944.08
527.725	14278.6
516.199	26027.8
504.658	2439.97
493.102	498.441
481.529	323.093
469.941	2818.68
458.34	1924.12
446.721	47.7531
435.088	34.6646
423.439	-4.283346