Folder: Determination-of-Trace-Organic-Contaminant-Concentration-via-Machine-Classification-of-Raman-Spectra/Finalized Code/CNN Models/RAMAN Data MITACs/HONGYAN/Triclosan Powder

Note: README.md
# Determination-of-Trace-Organic-Contaminant-Concentration-via-Machine-Classification-of-Raman-Spectra
Codebase and Data for "Determination-of-Trace-Organic-Contaminant-Concentration-via-Machine-Classification-of-Raman-Spectra."

Code files are given as Jupyter notebooks. Raw spectral data is availible as .csv files in all main folders under subfolder "RAMAN Data MITACs". Generated figures and raw data tables are availible in folder "Tables and Figures". Permission for usage of figures or diagrams is allowable with notification and citation. All files named "~Iterable.ipynb" in the folder "CNN Models" are CNN cross validation notebooks and are made to run on Niagara supercomputer(80 core), this may result in unintended phenomena if run on standard computers. "Key Functions.ipynb" contains all user defined functions for the codebase, a .py copy of this file is needed in all major folders. File paths used in "Key Functions.ipynb" may vary when downloaded, if this is the case please make the appropriate changes and update all the folders with "Key Functions.py".

File: Powder(1).txt
#Wave	#Intensity
1679.01	2.881422
1675.05	25.6798
1671.1	-30.0496
1667.13	-3.813816
1663.17	-4.398884
1659.2	-24.7234
1655.23	27.5983
1651.26	1.650192
1647.28	44.9896
1643.3	32.0765
1639.32	10.2791
1635.33	-38.082
1631.34	-35.78
1627.34	-15.507
1623.35	189.45
1619.35	202.715
1615.34	280.814
1611.33	572.593
1607.32	779.563
1603.31	1068.09
1599.29	3274.4
1595.27	2002.81
1591.25	780.363
1587.22	1055.61
1583.19	4215.4
1579.15	3460.66
1575.12	1908.28
1571.08	585.232
1567.03	364.88
1562.98	243.377
1558.93	97.6133
1554.88	45.5338
1550.82	-23.4869
1546.76	3.372884
1542.69	54.8539
1538.62	47.6981
1534.55	18.7405
1530.48	77.9824
1526.4	12.8328
1522.31	-20.297
1518.23	7.752436
1514.14	9.167655
1510.05	139.707
1505.95	520.571
1501.85	206.355
1497.75	135.486
1493.64	113.364
1489.53	79.2867
1485.42	81.6728
1481.3	113.152
1477.18	163.965
1473.05	154.366
1468.93	111.019
1464.8	-28.6769
1460.66	-35.7315
1456.52	5.279829
1452.38	14.8761
1448.24	-42.916
1444.09	0.043958
1439.93	4.399515
1435.78	-13.00292
1431.62	-11.4362
1427.46	30.5557
1423.29	77.0049
1419.12	137.4319
1414.95	23.3265
1410.77	-12.2263
1406.59	25.7956
1402.4	56.2922
1398.21	48.3682
1394.02	187.389
1389.83	171.567
1385.63	-12.9286
1381.42	20.5118
1377.22	1.474584
1373.01	-15.5047
1368.8	5.020296
1364.58	53.5143
1360.36	-30.4929
1356.13	29.1108
1351.9	34.1572
1347.67	13.0377
1343.44	-5.954928
1339.2	82.8846
1334.96	-11.6945
1330.71	-3.145415
1326.46	26.2914
1322.2	-42.7819
1317.95	-39.3731
1313.69	-50.09523
1309.42	34.83
1305.15	-8.72977
1300.88	68.9355
1296.6	39.3591
1292.32	144.782
1288.04	515.033
1283.75	1258.58
1279.46	2100.7
1275.16	2498.7
1270.87	6942.33
1266.56	2550.26
1262.26	1236.45
1257.95	1010.86
1253.63	665.891
1249.31	766.833
1244.99	185.934
1240.67	223.247
1236.34	545.977
1232	1750.79
1227.67	1142.5
1223.33	1237.5
1218.98	979.773
1214.63	287.845
1210.28	32.15144
1205.92	26.40612
1201.56	-36.0423
1197.2	11.5029
1192.83	34.2603
1188.46	162.102
1184.08	799.751
1179.7	706.881
1175.32	291.997
1170.93	202.687
1166.54	43.5712
1162.14	-3.963452
1157.74	9.978662
1153.34	279.669
1148.93	2424.15
1144.52	3323.63
1140.11	760.278
1135.69	152.799
1131.26	10.2718
1126.84	57.0503
1122.41	99.3696
1117.97	271.906
1113.53	1126.01
1109.09	1689.55
1104.64	2072.98
1100.19	1393.28
1095.73	343.831
1091.27	423.71
1086.81	2104.94
1082.34	3910.03
1077.87	806.638
1073.39	420.433
1068.91	288.129
1064.43	260.242
1059.94	784.588
1055.45	1400.84
1050.95	270.82
1046.45	93.9179
1041.95	78.4309
1037.44	33.9928
1032.93	51.1301
1028.41	26.0679
1023.89	-1.444421
1019.36	32.4012
1014.83	19.7245
1010.3	4.575335
1005.76	-13.0378
1001.22	-13.37667
996.673	-7.43445
992.123	-3.974006
987.568	5.763144
983.009	-2.254475
978.446	17.8543
973.878	-10.27399
969.307	15.8695
964.73	-6.117508
960.15	-15.2179
955.566	10.2668
950.978	0.823641
946.385	15.0975
941.787	24.8847
937.186	51.8536
932.58	37.6084
927.97	16.8365
923.354	41.3573
918.736	24.8369
914.113	152.616
909.485	101.5653
904.854	29.1217
900.218	-68.9365
895.577	11.3005
890.932	127.868
886.282	130.768
881.629	73.8133
876.971	-6.484537
872.309	47.968
867.642	200.522
862.971	1787.3
858.295	1041.57
853.614	129.228
848.93	-35.32732
844.241	10.6814
839.548	46.02177
834.85	110.978
830.147	76.2924
825.44	507.027
820.729	3098.85
816.014	413.699
811.294	258.428
806.568	166.572
801.84	537.937
797.105	3951.94
792.367	3711.41
787.625	664.386
782.878	160.7005
778.126	9.768894
773.369	-48.9996
768.608	-1.239342
763.843	48.2715
759.073	84.9141
754.299	577.919
749.52	1807.23
744.735	215.856
739.947	97.3983
735.154	-6.478036
730.357	18.3619
725.555	49.2576
720.748	208.45
715.937	491.484
711.121	1057.25
706.3	4965.9
701.475	18517.7
696.646	2639.79
691.811	527.077
686.972	206.81
682.127	130.265
677.279	140.779
672.426	346.931
667.567	717.514
662.705	494.559
657.838	340.592
652.966	1154.67
648.089	5443.2
643.208	538.139
638.321	67.594
633.431	-14.0146
628.535	-43.4287
623.635	-12.7704
618.729	-27.9173
613.819	59.0745
608.905	0.453036
603.985	95.7948
599.062	125.787
594.132	104.151
589.198	595.33
584.26	232.058
579.316	181.907
574.368	108.672
569.416	16.95248
564.458	-20.64889
559.495	-66.5086
554.528	-48.7762
549.556	119.764