Folder: Determination-of-Trace-Organic-Contaminant-Concentration-via-Machine-Classification-of-Raman-Spectra/Finalized Code/RAMAN Data MITACs/Bulk Carbon Ring Identification

Note: README.md
# Determination-of-Trace-Organic-Contaminant-Concentration-via-Machine-Classification-of-Raman-Spectra
Codebase and Data for "Determination-of-Trace-Organic-Contaminant-Concentration-via-Machine-Classification-of-Raman-Spectra."

Code files are given as Jupyter notebooks. Raw spectral data is availible as .csv files in all main folders under subfolder "RAMAN Data MITACs". Generated figures and raw data tables are availible in folder "Tables and Figures". Permission for usage of figures or diagrams is allowable with notification and citation. All files named "~Iterable.ipynb" in the folder "CNN Models" are CNN cross validation notebooks and are made to run on Niagara supercomputer(80 core), this may result in unintended phenomena if run on standard computers. "Key Functions.ipynb" contains all user defined functions for the codebase, a .py copy of this file is needed in all major folders. File paths used in "Key Functions.ipynb" may vary when downloaded, if this is the case please make the appropriate changes and update all the folders with "Key Functions.py".

File: Copy of PSnoBL.txt
#Wave		#Intensity
1724.09	2.972211
1720.17	40.2264
1716.25	64.0737
1712.33	-139.294
1708.4	48.0409
1704.47	-41.6621
1700.54	70.9092
1696.6	-18.5993
1692.66	237.469
1688.71	259.39
1684.77	357.759
1680.82	146.835
1676.86	171.666
1672.91	163.078
1668.95	-1.263695
1664.98	-93.8427
1661.01	29.1972
1657.04	351.057
1653.07	1441.14
1649.09	2187.3
1645.11	1971.23
1641.13	1423.96
1637.14	889.617
1633.15	741.153
1629.16	791.658
1625.16	1412.82
1621.16	2556.83
1617.16	4141.08
1613.15	7795.15
1609.14	19222.1
1605.12	46650.8
1601.11	53123.9
1597.09	23570.9
1593.06	11238.9
1589.04	9038.75
1585	23273.3
1580.97	17568.1
1576.93	5684.23
1572.89	2600.33
1568.85	1447.31
1564.8	891.421
1560.75	333.258
1556.69	307.437
1552.64	139.54
1548.57	-23.8539
1544.51	262.128
1540.44	297.943
1536.37	359.501
1532.29	123.265
1528.21	33.2507
1524.13	490.47
1520.05	373.934
1515.96	687.227
1511.87	511.064
1507.77	825.286
1503.67	981.598
1499.57	1265.79
1495.46	2515.55
1491.35	1747.82
1487.24	1278.45
1483.12	1272.77
1479	1417.18
1474.87	2123.46
1470.75	2137.64
1466.62	2600.95
1462.48	4010.26
1458.34	7394.92
1454.2	13187.1
1450.05	14234.6
1445.91	12591.8
1441.75	9505.17
1437.6	6408.66
1433.44	3568.08
1429.27	1714.74
1425.11	1223.86
1420.94	771.931
1416.76	659.827
1412.58	565.313
1408.4	655.578
1404.22	500.03
1400.03	149.852
1395.84	57.5127
1391.64	-182.71
1387.44	366.969
1383.24	1657.91
1379.03	2415.72
1374.82	2756.12
1370.61	2804.13
1366.39	2717.3
1362.17	2213.86
1357.95	1984.17
1353.72	1496.34
1349.48	1780.26
1345.25	2108.68
1341.01	3034.33
1336.77	4657.71
1332.52	5833.96
1328.27	6272.51
1324.01	5646.34
1319.75	4588.25
1315.49	3055.9
1311.23	2353.97
1306.96	1954.08
1302.68	1781.77
1298.41	1273.89
1294.13	906.589
1289.84	575.608
1285.55	327.986
1281.26	62.0175
1276.96	37.8599
1272.66	435.991
1268.36	772.158
1264.05	824.958
1259.74	988.024
1255.43	1111.29
1251.11	856.077
1246.79	1225.43
1242.46	1437.49
1238.13	1428.26
1233.79	1719.57
1229.46	2767.16
1225.11	3926.56
1220.77	4803.07
1216.42	6285.11
1212.06	11204.1
1207.71	19019.9
1203.34	27224.5
1198.98	32198.9
1194.61	32348.9
1190.24	27119.8
1185.86	27670.8
1181.48	32640.2
1177.09	16419.3
1172.7	7399.96
1168.31	5799.8
1163.91	6903.45
1159.51	15546.3
1155.11	25215.1
1150.7	10371.7
1146.29	3155.81
1141.87	1438
1137.45	184.377
1133.02	69.8484
1128.59	116.583
1124.16	581.34
1119.72	1710.97
1115.28	2872.49
1110.84	3468.88
1106.39	5199.14
1101.93	7017.23
1097.48	7758.14
1093.02	7664.96
1088.55	7717.77
1084.08	8151.57
1079.61	8561.64
1075.13	8538.24
1070.65	9345.84
1066.16	8926.44
1061.67	8291.79
1057.18	7936.07
1052.68	8125.99
1048.18	9573.94
1043.67	13559.9
1039.16	25327.5
1034.64	61475.6
1030.12	69099
1025.6	31106.1
1021.07	14246.1
1016.54	10452.8
1012	16132.1
1007.46	56452.8
1002.92	270483
998.371	124726
993.818	34066
989.261	25036.8
984.699	12226.8
980.134	7918.43
975.563	5225.99
970.989	3854.36
966.411	3866.11
961.828	3079.33
957.241	1779.6
952.649	1307.45
948.054	1137.5
943.454	977.91
938.85	680.61
934.241	301.261
929.628	0.993713
925.011	110.758
920.39	279.434
915.764	979.341
911.133	2225.17
906.498	3088.47
901.859	2043.26
897.216	924.915
892.568	135.202
887.916	283.993
883.259	334.593
878.598	467.468
873.933	864.43
869.263	783.318
864.589	769.137
859.91	349.643
855.227	582.896
850.539	1070.04
845.847	2506.43
841.15	3038.6
836.449	1654.51
831.744	242.557
827.034	-75.0317
822.319	442.647
817.601	1887.6
812.877	4031
808.149	5709.78
803.416	9297.64
798.68	15118.1
793.938	16807.7
789.191	15105.2
784.441	11326.9
779.687	8268.73
774.927	7421.13
770.162	7783.88
765.394	9103.83
760.62	10211.1
755.842	9921.46
751.06	8256.51
746.272	7182.43
741.48	7325.99
736.684	5101.87
731.883	3197.31
727.077	4119.51
722.268	3566.6
717.452	1393.23
712.633	1951.98
707.809	1756.74
702.979	1683.39
698.146	938.022
693.309	118.966
688.466	-5.053256
683.618	6.943596
678.766	-12.0657
673.909	-62.4777
669.048	37.4775
664.182	139.285
659.311	109.074
654.435	-27.5445
649.555	36.0852
644.669	303.234
639.779	507.815
634.885	1514.95
629.985	3252.73
625.082	11785.9
620.173	37338.5
615.26	5918.5
610.341	1037.84
605.418	-39.4287

File: Copy of PureToluene.txt
#Wave		#Intensity
2964.05	75046.5
2955.52	83391.7
2946.97	92404.9
2938.42	105548
2929.85	155154
2921.28	256920
2912.69	204797
2904.1	105461
2895.49	70182.6
2886.88	65850.9
2878.25	76296.7
2869.62	80751.2
2860.98	77125.8
2852.32	55254.2
2843.66	36413.2
2834.99	28672.8
2826.31	26608.4
2817.61	24333.4
2808.91	23848.2
2800.2	22603
2791.48	21554.6
2782.74	22433.2
2774	22654.8
2765.25	22038.7
2756.49	21558.1
2747.72	23304.1
2738.93	34738
2730.14	31429.3
2721.34	21053.1
2712.53	19753.6
2703.71	20243.5
2694.88	18977.2
2686.03	18514.2
2677.18	18543.8
2668.32	19179.9
2659.45	20725.7
2650.56	19061.2
2641.67	19117.8
2632.77	18845.5
2623.86	19563.5
2614.93	20848.9
2606	24916.4
2597.06	21373.6
2588.1	24624.9
2579.14	23625
2570.17	21839.6
2561.18	21708.3
2552.19	23369.2
2543.18	21807.9
2534.17	20490.9
2525.14	19690.9
2516.11	19336.7
2507.06	19287
2498	19255
2488.94	19637
2479.86	19507
2470.77	19524
2461.67	19742.3
2452.56	19358.9
2443.44	19452.4
2434.31	21163.8
2425.17	20649.3
2416.02	20715.8
2406.86	19957.3
2397.69	19250.4
2388.51	19477.6
2379.31	18808.5
2370.11	18538
2360.9	18453.9
2351.67	18309.5
2342.44	17822.6
2333.19	17589.8
2323.93	17368.3
2314.66	17654.3
2305.38	17152
2296.09	16613.4
2286.79	16823.1
2277.48	16643.1
2268.16	16468.9
2258.83	16724.9
2249.48	16334.6
2240.13	16557.1
2230.76	16042.4
2221.39	15913.2
2212	15905.2
2202.6	16007.3
2193.19	15500.8
2183.77	15537.5
2174.34	15495
2164.89	15444.1
2155.44	15278.5
2145.97	15329.9
2136.5	15214.1
2127.01	15235
2117.51	15331.2
2108	14994.9
2098.48	14859
2088.95	14783.9
2079.4	14771.6
2069.85	14589.5
2060.28	14586.7
2050.7	14469.6
2041.11	14443.1
2031.51	14514
2021.9	14229.5
2012.28	14208.4
2002.64	14253.4
1992.99	14633.7
1983.34	14145.1
1973.67	13896.6
1963.98	14268.6
1954.29	14224.8
1944.59	13665
1934.87	13862.8
1925.14	14179.7
1915.4	13523.8
1905.65	13447.3
1895.88	13461.6
1886.11	13275.3
1876.32	13191.1
1866.52	13132.5
1856.71	13108.5
1846.89	13161.5
1837.06	12931.9
1827.21	12916.2
1817.35	12954
1807.48	13043.2
1797.6	13101.8
1787.7	13742.9
1777.8	12966.4
1767.88	12768.9
1757.95	12825.4
1748	12594.5
1738.05	12902
1728.08	13024.1
1718.1	12990.1
1708.11	12836.7
1698.1	13236.8
1688.09	13729.4
1678.06	14190.9
1668.02	13793.7
1657.96	14195.5
1647.9	15387.5
1637.82	17677.9
1627.73	25690.3
1617.62	34456.3
1607.51	89896.4
1597.38	56460.7
1587.24	65057.4
1577.08	35730.5
1566.91	21603.1
1556.73	17933.2
1546.54	16695.8
1536.34	16300.3
1526.12	16390
1515.89	16596.3
1505.65	17395.7
1495.39	21641
1485.12	18870.3
1474.84	19675.4
1464.54	21409.7
1454.24	23883.2
1443.92	26675.5
1433.58	26454
1423.23	22267
1412.88	18960.2
1402.5	18128.2
1392.12	21386.2
1381.72	48458.2
1371.3	27688.1
1360.88	17672.7
1350.44	15701
1339.99	15711.5
1329.52	18698.4
1319.04	15768.5
1308.55	16160.2
1298.04	13995.2
1287.53	13432.2
1276.99	13504.8
1266.45	13205.3
1255.89	13503.3
1245.31	14370.2
1234.73	14275.6
1224.13	16022.9
1213.51	56297.5
1202.88	30713.9
1192.24	21615.6
1181.59	37987.3
1170.92	26392.8
1160.24	35907.3
1149.54	29718.2
1138.83	17118.2
1128.11	15018.5
1117.37	14300.1
1106.62	14516.8
1095.85	14056.9
1085.07	15775.9
1074.28	14956.7
1063.47	14577.1
1052.65	15390.8
1041.82	17794.5
1030.97	99024.4
1020.1	21416.5
1009.23	42671.2
998.334	79680.6
987.428	22676.7
976.508	16818.3
965.572	15273.2
954.625	13618.5
943.66	13027.7
932.684	13003.5
921.691	12622.4
910.686	12757.8
899.664	15069
888.629	14203.1
877.58	12741.1
866.516	12648
855.438	13294.5
844.344	18273.9
833.236	15114
822.113	13688.9
810.977	18520.2
799.824	17112.2
788.658	100964
777.477	25946.7
766.281	13348.4
755.07	12540.5
743.846	12771.4
732.605	17933.2
721.352	13857.6
710.08	12138
698.797	12013.5
687.496	11805.6
676.182	11527.8
664.854	11400.1
653.508	11968.6
642.148	13395.3
630.775	22226.9
619.385	43272.8
607.98	16170.5
596.561	12440.7
585.127	11711.2
573.676	11509.7
562.211	11508.4
550.73	11801
539.234	13284.4
527.725	25554.6
516.199	37230.9
504.658	13563.8
493.102	11539.6
481.529	11282.6
469.941	13703.3
458.34	12748.2
446.721	10835.1
435.088	10820.8
423.439	10830.4