Folder: Determination-of-Trace-Organic-Contaminant-Concentration-via-Machine-Classification-of-Raman-Spectra/Finalized Code/RAMAN Data MITACs/HONGYAN/Chlorpyrifos Powder

Note: README.md
# Determination-of-Trace-Organic-Contaminant-Concentration-via-Machine-Classification-of-Raman-Spectra
Codebase and Data for "Determination-of-Trace-Organic-Contaminant-Concentration-via-Machine-Classification-of-Raman-Spectra."

Code files are given as Jupyter notebooks. Raw spectral data is availible as .csv files in all main folders under subfolder "RAMAN Data MITACs". Generated figures and raw data tables are availible in folder "Tables and Figures". Permission for usage of figures or diagrams is allowable with notification and citation. All files named "~Iterable.ipynb" in the folder "CNN Models" are CNN cross validation notebooks and are made to run on Niagara supercomputer(80 core), this may result in unintended phenomena if run on standard computers. "Key Functions.ipynb" contains all user defined functions for the codebase, a .py copy of this file is needed in all major folders. File paths used in "Key Functions.ipynb" may vary when downloaded, if this is the case please make the appropriate changes and update all the folders with "Key Functions.py".

File: Powder(1).txt
#Wave	#Intensity
1184.64	11549.8
1180.28	11460.2
1175.92	11555.2
1171.55	11882.5
1167.17	11589.9
1162.8	11680
1158.42	11679
1154.03	11469.1
1149.64	11584
1145.25	11603.4
1140.86	11693.1
1136.46	11798.4
1132.06	11840.2
1127.65	11827.7
1123.24	11833.3
1118.82	11904.3
1114.4	11921
1109.98	12090.8
1105.56	12613.5
1101.13	12469.9
1096.69	12147
1092.25	12387.8
1087.81	12327.7
1083.37	12348.4
1078.92	12288.4
1074.47	12034
1070.01	12405.6
1065.55	12187.2
1061.08	12419.7
1056.62	12264.1
1052.14	12373.6
1047.67	12460.7
1043.19	12312.1
1038.7	12476.8
1034.21	12463.7
1029.72	12501.6
1025.23	12433.1
1020.73	12634.7
1016.22	12278.8
1011.72	12736.3
1007.21	12756.1
1002.69	12588.4
998.17	12559.8
993.646	12722.7
989.119	12515.8
984.588	12731.2
980.053	12891.2
975.513	12958.9
970.97	13048.3
966.423	12971.2
961.871	12830.7
957.315	13228.2
952.757	12902.1
948.193	13021.6
943.626	13029.8
939.055	12942.1
934.479	13348.5
929.899	13423.7
925.316	13283.7
920.729	13378.3
916.138	13355.6
911.542	13194.3
906.941	13531.1
902.338	13333.2
897.73	13548.2
893.118	13613.9
888.502	13280.5
883.882	13540.2
879.258	13605.7
874.63	13531.2
869.997	13811.5
865.36	14009.6
860.72	13913.5
856.074	13768.2
851.426	14327.7
846.772	14081.7
842.115	14152.5
837.453	14169.7
832.788	14280.8
828.118	14329.9
823.444	14525.8
818.766	14285
814.083	14257.3
809.396	14629.1
804.706	14410
800.011	14549.8
795.312	14617.2
790.607	14720.4
785.9	14855.2
781.1875	14801.7
776.472	14798.9
771.751	15025.9
767.026	14926
762.297	15061.9
757.563	15035.7
752.826	15070.4
748.084	15039.9
743.338	15091.3
738.587	15012.6
733.832	15315.2
729.073	15265.7
724.31	15207.9
719.541	15490.5
714.769	15476.4
709.992	15483.1
705.211	15704.3
700.426	15675.4
695.636	15696.4
690.842	15997.7
686.044	15684.2
681.24	16644.2
676.434	17453.2
671.621	15951.5
666.805	15790
661.984	16172.1
657.159	16072.6
652.33	16614.4
647.496	16438.4
642.657	16768.9
637.814	17203.7
632.967	21380
628.115	18448.3
623.259	16959.1
618.397	16791.8
613.532	16665.8
608.662	16946.7
603.788	16837
598.909	16811.2
594.025	16899.5
589.138	16863.4
584.244	17216
579.348	17077.9
574.445	17238.7
569.539	17518.9
564.628	17492.3
559.713	17518.5
554.792	17662
549.867	17720.2
544.938	17838.9
540.004	18003.7
535.065	18246.9
530.122	18217.6
525.174	18069.7
520.222	19172.4
515.264	18009.5
510.302	17932.3
505.335	17917.4
500.363	18208.9
495.388	18417.7
490.406	18590.2
485.421	18630.5
480.431	18736.5
475.436	18511.4
470.436	18816.5
465.432	18832.4
460.422	18794.6
455.408	18675.4
450.389	18917.5
445.365	19440.5
440.337	19346.7
435.304	19340.1
430.266	19260.4
425.223	19461.1
420.175	19462.2
415.122	19928.3
410.065	19568.6
405.003	19764.2
399.936	19625.4
394.863	19655.6
389.786	19874
384.705	20050.8
379.618	19810.3
374.526	19822.5
369.43	20014.3
364.328	20223.3
359.223	20435.8
354.111	20468.7
348.994	21419.9
343.873	24636.2
338.747	22536
333.616	21305.3
328.479	21059.8
323.339	20878.6
318.192	20887.3
313.041	20573.2
307.886	20669.1
302.725	20809.1
297.558	20860.1
292.387	20972.6
287.21	20886.7
282.029	20583.9
276.843	20844
271.651	20971.3
266.454	20814.8
261.253	21223.1
256.046	21036
250.834	21471.9
245.617	21573
240.396	21504.2
235.168	21281.2
229.936	21050.9
224.698	21151.9
219.455	20794.9
214.207	20852.3
208.954	20877.2
203.696	21848.8
198.433	21203
193.164	20792.8
187.891	20961.1
182.611	21306.3
177.327	21272
172.037	21482.5
166.742	21547.7
161.442	22625.3
156.138	21127.8
150.827	20454.5
145.511	20297.4
140.19	20587.9
134.864	20552.5
129.532	20840.2
124.195	20905.3
118.854	20929.3
113.506	20564
108.152	18294.8
102.795	13956.4
97.4307	9166.33
92.0615	3024.58
86.6875	589.122
81.3076	186.924
75.9229	112.782
70.5322	108.976
65.1367	125.474
59.7354	114.288
54.3291	130.747
48.917	106.701
43.5	106.594
38.0771	100.98
32.6484	97.2101
27.2148	89.7835
21.7764	98.846
16.3311	120.691
10.8809	151.626
5.425781	197.098
-0.035156	6510.47
-5.501953	271.377
-10.9736	123.725
-16.4512	118.148
-21.93457	123.477
-27.4229	97.9568
-32.917	61.6145
-38.416	50.6904
-43.9219	61.4907
-49.4326	66.8491
-54.9482	95.6604
-60.4697	99.1704
-65.99707	104.474