Folder: Determination-of-Trace-Organic-Contaminant-Concentration-via-Machine-Classification-of-Raman-Spectra/Finalized Code/Tuned Standard Models/RAMAN Data MITACs/ESMA/tcnpowder/Raw

Note: README.md
# Determination-of-Trace-Organic-Contaminant-Concentration-via-Machine-Classification-of-Raman-Spectra
Codebase and Data for "Determination-of-Trace-Organic-Contaminant-Concentration-via-Machine-Classification-of-Raman-Spectra."

Code files are given as Jupyter notebooks. Raw spectral data is availible as .csv files in all main folders under subfolder "RAMAN Data MITACs". Generated figures and raw data tables are availible in folder "Tables and Figures". Permission for usage of figures or diagrams is allowable with notification and citation. All files named "~Iterable.ipynb" in the folder "CNN Models" are CNN cross validation notebooks and are made to run on Niagara supercomputer(80 core), this may result in unintended phenomena if run on standard computers. "Key Functions.ipynb" contains all user defined functions for the codebase, a .py copy of this file is needed in all major folders. File paths used in "Key Functions.ipynb" may vary when downloaded, if this is the case please make the appropriate changes and update all the folders with "Key Functions.py".

File: Raw(1).txt
#Wave		#Intensity
1634.03	137.319
1630.04	122.262
1626.05	134.624
1622.05	323.824
1618.05	261.331
1614.04	288.466
1610.04	429.851
1606.03	531.278
1602.01	674.702
1598	1752.26
1593.98	918.729
1589.95	497.33
1585.92	608.161
1581.89	1684.62
1577.86	1026.71
1573.82	584.436
1569.78	275.957
1565.74	246.183
1561.69	236.137
1557.64	140.088
1553.58	144.881
1549.52	132.492
1545.46	139.735
1541.4	120.021
1537.33	151.736
1533.26	129.6
1529.18	129.491
1525.1	134.264
1521.02	139.029
1516.93	131.6
1512.85	121.749
1508.75	177.604
1504.66	333.029
1500.56	230.738
1496.45	184.434
1492.35	150.332
1488.24	169.586
1484.12	135.554
1480.01	140.276
1475.89	149.823
1471.76	137.623
1467.64	130.269
1463.51	106.055
1459.37	122.823
1455.23	125.125
1451.09	117.806
1446.95	120.108
1442.8	110.405
1438.65	122.302
1434.49	105.425
1430.33	126.881
1426.17	143.516
1422	169.683
1417.83	169.538
1413.66	138.377
1409.48	152.561
1405.3	135.759
1401.12	130.883
1396.93	149.792
1392.74	244.688
1388.54	159.03
1384.35	130.435
1380.14	111.367
1375.94	123.108
1371.73	123.002
1367.52	122.896
1363.3	160.572
1359.08	139.2
1354.86	148.509
1350.63	176.644
1346.4	178.845
1342.16	157.529
1337.92	162.091
1333.68	143.174
1329.44	150.086
1325.19	121.839
1320.93	128.756
1316.68	121.628
1312.42	147.228
1308.15	149.436
1303.88	146.973
1299.61	142.183
1295.34	172.334
1291.06	165.203
1286.77	355.691
1282.49	420.418
1278.2	452.541
1273.9	702.564
1269.61	1871.87
1265.3	678.189
1261	508.774
1256.69	464.427
1252.38	313.963
1248.06	288.316
1243.74	228.146
1239.41	285.507
1235.09	526.802
1230.75	781.463
1226.42	571.802
1222.08	981.99
1217.74	644.149
1213.39	313.774
1209.04	237.982
1204.68	221.768
1200.32	180.455
1195.96	175.731
1191.59	193.816
1187.22	232.373
1182.85	484.819
1178.47	361.585
1174.09	270.38
1169.7	222.467
1165.31	156.495
1160.92	145.026
1156.52	147.16
1152.12	205.84
1147.71	644.088
1143.3	514.809
1138.89	309.06
1134.47	180.311
1130.05	177.898
1125.63	209.236
1121.2	245.013
1116.76	323.396
1112.33	998.483
1107.88	768.924
1103.44	1133.31
1098.99	507.962
1094.54	232.512
1090.08	357.388
1085.62	1278.74
1081.15	1021.17
1076.68	356.418
1072.21	302.681
1067.73	233.475
1063.25	244.371
1058.76	486.079
1054.27	376.978
1049.78	199.395
1045.28	157.157
1040.78	145.956
1036.27	145.823
1031.76	134.653
1027.25	145.557
1022.73	138.814
1018.2	125.478
1013.68	145.157
1009.15	131.84
1004.61	127.329
1000.07	131.598
995.527	144.625
990.979	146.681
986.428	122.486
981.871	133.3
977.311	133.177
972.746	148.322
968.178	137.289
963.604	141.517
959.026	152.262
954.445	145.601
949.859	136.782
945.27	160.515
940.675	179.87
936.076	218.675
931.474	136.275
926.866	140.47
922.255	140.339
917.639	144.523
913.019	196.109
908.395	230.375
903.766	161.327
899.133	141.835
894.495	145.996
889.854	233.805
885.207	210.013
880.557	179.842
875.902	173.257
871.243	192.327
866.579	313.839
861.911	961.961
857.239	443.237
852.562	223.539
847.881	155.266
843.195	203.993
838.506	171.957
833.812	188.762
829.112	252.152
824.409	368.344
819.701	1163.21
814.989	230.308
810.272	287.085
805.552	236.199
800.826	370.818
796.096	1953.36
791.361	927.388
786.622	361.359
781.879	237.179
777.13	195.015
772.378	169.69
767.62	186.272
762.858	207.004
758.093	267.386
753.322	525.914
748.547	971.595
743.767	289.534
738.982	216.423
734.193	207.9
729.399	189.008
724.602	180.527
719.799	244.618
714.991	368.646
710.179	486.229
705.362	1920.31
700.541	2981.99
695.715	924.273
690.885	333.903
686.049	290.34
681.209	255.088
676.365	308.278
671.516	377.79
666.662	408.195
661.803	399.604
656.94	313.233
652.072	674.95
647.199	766.249
642.322	298.038
637.44	232.49
632.554	209.854
627.662	181.155
622.766	193.18
617.864	188.93
612.959	174.541
608.048	194.648
603.133	218.766
598.213	236.767
593.288	299.21
588.358	565.525
583.425	379.341
578.485	540.238
573.541	406.799
568.593	297.762
563.639	257.273
558.681	204.816
553.718	266.804
548.749	340.696
543.776	380.408
538.799	188.019
533.816	221.806
528.829	191.646
523.837	193.453
518.84	165.371
513.838	207.01
508.831	216.751
503.819	196.674
498.803	202.436
493.781	216.118

File: Raw(2).txt
#Wave		#Intensity
1634.03	-0.813631
1630.04	-21.46
1626.05	-0.089723
1622.05	35.5381
1618.05	55.2749
1614.04	103.703
1610.04	143.28
1606.03	191.227
1602.01	262.247
1598	1037.71
1593.98	420.714
1589.95	198.61
1585.92	268.946
1581.89	781.578
1577.86	464.27
1573.82	236.392
1569.78	85.3441
1565.74	62.5858
1561.69	32.4684
1557.64	-2.563790
1553.58	6.587925
1549.52	-4.000612
1545.46	34.3473
1541.4	6.372985
1537.33	17.4735
1533.26	8.858937
1529.18	-9.649701
1525.1	-16.0558
1521.02	-0.630115
1516.93	-2.416616
1512.85	2.984527
1508.75	42.3244
1504.66	103.37
1500.56	45.204
1496.45	18.5962
1492.35	4.078193
1488.24	11.3191
1484.12	6.384080
1480.01	8.661327
1475.89	27.8069
1471.76	8.253476
1467.64	-1.644883
1463.51	2.914898
1459.37	7.452581
1455.23	14.3803
1451.09	2.059141
1446.95	-34.2616
1442.8	1.487950
1438.65	-5.980506
1434.49	10.5346
1430.33	3.094392
1426.17	-23.4548
1422	0.243831
1417.83	40.6318
1413.66	-4.923872
1409.48	-17.015
1405.3	23.3253
1401.12	4.115452
1396.93	-10.2969
1392.74	41.8397
1388.54	15.5636
1384.35	-5.922259
1380.14	3.431649
1375.94	5.663586
1371.73	12.616
1367.52	24.2739
1363.3	14.647
1359.08	2.662116
1354.86	16.6099
1350.63	11.6706
1346.4	30.2487
1342.16	11.1498
1337.92	-7.944086
1333.68	5.824716
1329.44	-6.258006
1325.19	-13.6668
1320.93	4.654002
1316.68	-2.821079
1312.42	-14.9929
1308.15	14.8489
1303.88	25.9395
1299.61	36.9748
1295.34	15.3519
1291.06	54.2295
1286.77	148.801
1282.49	131.684
1278.2	179.546
1273.9	292.221
1269.61	891.173
1265.3	280.813
1261	154.835
1256.69	197.735
1252.38	72.0199
1248.06	52.6157
1243.74	33.2384
1239.41	66.8488
1235.09	141.809
1230.75	322.368
1226.42	188.01
1222.08	411.822
1217.74	243.264
1213.39	102.506
1209.04	51.2637
1204.68	11.5697
1200.32	-9.749607
1195.96	23.7757
1191.59	2.554068
1187.22	29.2518
1182.85	158.372
1178.47	73.54
1174.09	25.261
1169.7	29.33
1165.31	26.64
1160.92	-9.981551
1156.52	19.1738
1152.12	32.4997
1147.71	312.534
1143.3	176.665
1138.89	45.6088
1134.47	18.5239
1130.05	5.056143
1125.63	7.417887
1121.2	41.3003
1116.76	70.6841
1112.33	423.172
1107.88	315.513
1103.44	494.782
1098.99	172.524
1094.54	56.5725
1090.08	74.8901
1085.62	586.406
1081.15	434.825
1076.68	145.434
1072.21	70.2487
1067.73	39.6905
1063.25	49.1908
1058.76	211.833
1054.27	116.953
1049.78	26.678
1045.28	0.755362
1040.78	10.2557
1036.27	-22.2533
1031.76	-8.363984
1027.25	-5.548757
1022.73	3.845299
1018.2	4.386237
1013.68	-17.1023
1009.15	-3.432786
1004.61	25.5361
1000.07	6.152866
995.527	15.2421
990.979	4.558089
986.428	-12.7239
981.871	2.746164
977.311	18.127
972.746	2.879749
968.178	18.1052
963.604	17.9967
959.026	9.121281
954.445	11.0612
949.859	25.9574
945.27	12.5606
940.675	29.4621
936.076	15.9557
931.474	4.573845
926.866	-9.009879
922.255	-3.196456
917.639	21.9623
913.019	16.8491
908.395	22.4593
903.766	28.011
899.133	1.272865
894.495	13.1904
889.854	50.7896
885.207	34.7118
880.557	-4.913895
875.902	-14.5421
871.243	22.843
866.579	90.0343
861.911	434.375
857.239	134.519
852.562	28.9623
847.881	21.4491
843.195	9.711118
838.506	8.625395
833.812	20.2868
829.112	27.7118
824.409	88.0732
819.701	488.853
814.989	41.6283
810.272	68.1318
805.552	37.6832
800.826	104.251
796.096	911.667
791.361	413.782
786.622	76.5552
781.879	23.3682
777.13	-14.9958
772.378	-2.965703
767.62	-16.0327
762.858	-8.125831
758.093	47.8489
753.322	216.447
748.547	376.414
743.767	50.7697
738.982	6.703933
734.193	4.321914
729.399	-18.8103
724.602	-0.386998
719.799	30.4456
714.991	65.3628
710.179	180.904
705.362	951.479
700.541	1542.97
695.715	361.089
690.885	73.9304
686.049	28.2225
681.209	34.0081
676.365	58.2543
671.516	86.5344
666.662	124.991
661.803	79.3287
656.94	58.2999
652.072	286.819
647.199	351.417
642.322	77.0149
637.44	11.1573
632.554	12.6668
627.662	20.2939
622.766	-6.639041
617.864	11.2079
612.959	-19.6428
608.048	-13.8799
603.133	22.3256
598.213	42.3526
593.288	70.5194
588.358	197.7
583.425	120.948
578.485	169.44
573.541	103.166
568.593	59.2649
563.639	29.6263
558.681	-1.870009
553.718	69.074
548.749	71.78
543.776	80.4828
538.799	41.1033
533.816	11.659
528.829	4.008894
523.837	-5.953973
518.84	-0.425750
513.838	-1.508927
508.831	6.531276
503.819	21.4538
498.803	-20.5382
493.781	17.2189

File: Raw(3).txt
#Wave		#Intensity
1634.03	-11.7567
1630.04	7.315973
1626.05	15.8898
1622.05	195.305
1618.05	124.003
1614.04	195.067
1610.04	338.151
1606.03	460.84
1602.01	622.381
1598	2254.91
1593.98	1038.16
1589.95	433.154
1585.92	499.949
1581.89	1787.5
1577.86	975.515
1573.82	552.369
1569.78	152.305
1565.74	109.967
1561.69	77.5387
1557.64	32.7999
1553.58	39.5638
1549.52	16.682
1545.46	-23.5517
1541.4	11.9501
1537.33	7.949216
1533.26	28.1071
1529.18	23.488
1525.1	25.8859
1521.02	1.137622
1516.93	24.8636
1512.85	28.771
1508.75	51.8478
1504.66	188.863
1500.56	116.509
1496.45	65.8775
1492.35	49.0536
1488.24	39.3209
1484.12	7.632722
1480.01	41.1313
1475.89	28.5104
1471.76	49.582
1467.64	5.369495
1463.51	40.6767
1459.37	1.185659
1455.23	26.6647
1451.09	18.3895
1446.95	2.882588
1442.8	4.175599
1438.65	5.449713
1434.49	-19.6423
1430.33	-13.5686
1426.17	4.462161
1422	46.3753
1417.83	14.2124
1413.66	25.0721
1409.48	12.1017
1405.3	3.945054
1401.12	14.8696
1396.93	11.5394
1392.74	169.787
1388.54	61.9506
1384.35	37.3313
1380.14	3.301876
1375.94	11.969
1371.73	-12.4741
1367.52	-3.769421
1363.3	7.296683
1359.08	-9.956580
1354.86	19.9742
1350.63	14.5296
1346.4	74.9863
1342.16	15.4267
1337.92	31.1385
1333.68	30.386
1329.44	1.483738
1325.19	-3.950118
1320.93	-16.4121
1316.68	-3.139623
1312.42	3.081575
1308.15	2.268423
1303.88	15.435
1299.61	19.2354
1295.34	6.707998
1291.06	52.3537
1286.77	221.115
1282.49	264.137
1278.2	272.257
1273.9	642.066
1269.61	1998.12
1265.3	611.252
1261	353.052
1256.69	377.192
1252.38	175.053
1248.06	107.053
1243.74	82.9673
1239.41	144.129
1235.09	391.537
1230.75	771.839
1226.42	575.102
1222.08	1154.24
1217.74	677.909
1213.39	252.846
1209.04	96.308
1204.68	54.408
1200.32	62.8874
1195.96	23.4807
1191.59	70.8505
1187.22	118.198
1182.85	304.372
1178.47	192.373
1174.09	121.541
1169.7	53.1768
1165.31	3.152456
1160.92	-14.9835
1156.52	14.5326
1152.12	50.8575
1147.71	401.327
1143.3	270.304
1138.89	202.754
1134.47	36.2259
1130.05	16.4375
1125.63	48.4982
1121.2	165.983
1116.76	254.122
1112.33	1165.63
1107.88	813.43
1103.44	1232.38
1098.99	444.494
1094.54	143.208
1090.08	242.325
1085.62	1367.85
1081.15	1044.32
1076.68	311.506
1072.21	178.708
1067.73	110.633
1063.25	122.648
1058.76	374.333
1054.27	281.821
1049.78	78.6694
1045.28	37.4326
1040.78	0.647436
1036.27	23.5302
1031.76	-13.29
1027.25	5.024437
1022.73	1.197061
1018.2	45.7262
1013.68	10.9101
1009.15	-1.961112
1004.61	11.4375
1000.07	-3.803905
995.527	4.980142
990.979	35.5302
986.428	22.165
981.871	19.6341
977.311	-0.476531
972.746	7.685552
968.178	6.994872
963.604	-2.524513
959.026	5.254223
954.445	-4.486047
949.859	-7.812809
945.27	-4.741295
940.675	74.0611
936.076	91.9858
931.474	10.2711
926.866	-17.3642
922.255	4.617064
917.639	11.3705
913.019	56.8216
908.395	95.6556
903.766	7.440577
899.133	5.293300
894.495	15.9826
889.854	82.3815
885.207	80.0487
880.557	24.1737
875.902	11.1702
871.243	40.9266
866.579	177.381
861.911	1043.06
857.239	330.243
852.562	55.229
847.881	-6.531731
843.195	-4.376842
838.506	36.0461
833.812	29.7991
829.112	59.6592
824.409	261.014
819.701	1168.46
814.989	86.0186
810.272	177.283
805.552	80.7794
800.826	231.07
796.096	2098.79
791.361	949.59
786.622	189.24
781.879	39.1275
777.13	8.926716
772.378	-19.0225
767.62	-2.871663
762.858	30.0667
758.093	54.6716
753.322	511.309
748.547	1060.97
743.767	132.814
738.982	55.5279
734.193	32.4906
729.399	-11.2348
724.602	1.177369
719.799	63.3375
714.991	191.661
710.179	317.67
705.362	1832.5
700.541	3057.36
695.715	803.503
690.885	161.616
686.049	72.7752
681.209	88.9767
676.365	127.707
671.516	207.378
666.662	258.128
661.803	181.679
656.94	119.663
652.072	464.741
647.199	559.835
642.322	107.638
637.44	11.1549
632.554	-15.8688
627.662	38.5937
622.766	-6.656782
617.864	-13.1705
612.959	25.0477
608.048	8.535833
603.133	-1.759791
598.213	67.0126
593.288	143.88
588.358	463.122
583.425	245.182
578.485	433.012
573.541	314.538
568.593	176.328
563.639	92.788
558.681	51.6736
553.718	84.9068
548.749	202.221
543.776	167.023
538.799	5.640041
533.816	8.037528
528.829	-12.105
523.837	24.8264
518.84	12.7939
513.838	3.367408
508.831	6.096696
503.819	8.573884
498.803	-9.575745
493.781	18.5073

File: Raw(4).txt
#Wave		#Intensity
1634.03	17.3578
1630.04	-8.425185
1626.05	2.839062
1622.05	145.46
1618.05	102.764
1614.04	178.376
1610.04	376.763
1606.03	439.242
1602.01	539.63
1598	1904.52
1593.98	808.622
1589.95	355.832
1585.92	470.268
1581.89	1656.79
1577.86	987.998
1573.82	525.121
1569.78	208.458
1565.74	108.995
1561.69	81.0243
1557.64	28.4886
1553.58	7.907431
1549.52	16.7306
1545.46	-33.3807
1541.4	24.2741
1537.33	3.420047
1533.26	24.0729
1529.18	10.3881
1525.1	21.0429
1521.02	14.5156
1516.93	-21.3311
1512.85	-8.496734
1508.75	48.0362
1504.66	189.488
1500.56	109.621
1496.45	39.5441
1492.35	22.8853
1488.24	28.0209
1484.12	21.0133
1480.01	9.154861
1475.89	31.1266
1471.76	45.8014
1467.64	14.603
1463.51	9.961692
1459.37	-16.3539
1455.23	12.7131
1451.09	12.8752
1446.95	13.0321
1442.8	-13.218
1438.65	1.337267
1434.49	-5.704542
1430.33	18.377
1426.17	1.741628
1422	30.5266
1417.83	64.0188
1413.66	25.8563
1409.48	30.6398
1405.3	13.9485
1401.12	-5.129069
1396.93	11.4514
1392.74	144.365
1388.54	46.7656
1384.35	8.570355
1380.14	10.6666
1375.94	5.597533
1371.73	2.839928
1367.52	0.021444
1363.3	13.669
1359.08	-1.089617
1354.86	38.3223
1350.63	61.1054
1346.4	64.9482
1342.16	45.197
1337.92	13.6586
1333.68	5.570791
1329.44	4.458098
1325.19	10.3042
1320.93	-12.023
1316.68	-25.0232
1312.42	-7.685015
1308.15	7.226430
1303.88	10.3903
1299.61	11.1645
1295.34	0.245350
1291.06	26.5313
1286.77	254.99
1282.49	269.326
1278.2	304.498
1273.9	673.482
1269.61	1785.46
1265.3	532.237
1261	289.51
1256.69	319.866
1252.38	177.044
1248.06	149.824
1243.74	85.8116
1239.41	141.68
1235.09	347.025
1230.75	618.716
1226.42	442.192
1222.08	970.417
1217.74	493.736
1213.39	171.427
1209.04	46.5666
1204.68	13.4688
1200.32	26.2109
1195.96	16.209
1191.59	42.8132
1187.22	99.0952
1182.85	316.995
1178.47	154.844
1174.09	58.9883
1169.7	61.0345
1165.31	-11.6496
1160.92	-20.6359
1156.52	-31.751
1152.12	0.249668
1147.71	473.002
1143.3	317.316
1138.89	164.277
1134.47	43.1755
1130.05	12.4705
1125.63	13.4189
1121.2	104.375
1116.76	188.52
1112.33	943.488
1107.88	726.492
1103.44	1051.97
1098.99	399.047
1094.54	136.367
1090.08	198.092
1085.62	1121.17
1081.15	936.699
1076.68	240.237
1072.21	170.443
1067.73	71.8738
1063.25	97.8866
1058.76	367.988
1054.27	251.728
1049.78	66.9668
1045.28	44.0863
1040.78	16.7758
1036.27	-6.123761
1031.76	-9.180142
1027.25	0.927733
1022.73	4.325520
1018.2	3.225909
1013.68	-19.9611
1009.15	-8.049767
1004.61	5.927216
1000.07	4.412457
995.527	20.3129
990.979	29.4942
986.428	-27.0846
981.871	1.536885
977.311	1.593105
972.746	-9.388894
968.178	-0.870680
963.604	5.321671
959.026	-19.0821
954.445	8.584095
949.859	-18.2084
945.27	15.6583
940.675	38.5039
936.076	87.1698
931.474	36.1295
926.866	4.525316
922.255	0.945628
917.639	18.8474
913.019	60.3328
908.395	75.8237
903.766	9.473686
899.133	14.1007
894.495	-9.247756
889.854	46.7659
885.207	27.6326
880.557	-4.338446
875.902	8.650687
871.243	40.8392
866.579	158.366
861.911	941.163
857.239	316.083
852.562	43.4812
847.881	3.265071
843.195	-17.7056
838.506	25.1043
833.812	44.5634
829.112	40.7443
824.409	189.424
819.701	1016.79
814.989	76.2725
810.272	98.0892
805.552	54.5778
800.826	247.215
796.096	1835.14
791.361	806.215
786.622	195.316
781.879	57.9271
777.13	-3.623004
772.378	-33.5466
767.62	18.2924
762.858	1.107393
758.093	86.384
753.322	424.084
748.547	855.018
743.767	110.379
738.982	10.226
734.193	35.0361
729.399	20.3584
724.602	3.647404
719.799	63.6754
714.991	150.508
710.179	295.095
705.362	1938.01
700.541	2927.25
695.715	694.031
690.885	132.513
686.049	74.4603
681.209	88.4729
676.365	114.741
671.516	177.867
666.662	300.31
661.803	207.302
656.94	120.577
652.072	530.999
647.199	548.289
642.322	110.315
637.44	38.2433
632.554	-5.143200
627.662	-7.696589
622.766	8.116007
617.864	13.8208
612.959	-29.0928
608.048	-4.889807
603.133	21.4366
598.213	27.6405
593.288	114.883
588.358	389.99
583.425	230.951
578.485	380.854
573.541	226.585
568.593	107.019
563.639	80.3194
558.681	41.7645
553.718	55.5293
548.749	183.516
543.776	171.022
538.799	12.3344
533.816	-4.525723
528.829	2.056485
523.837	-0.127732
518.84	12.579
513.838	7.955204
508.831	-6.384686
503.819	-22.9237
498.803	1.473691
493.781	18.4834

File: Raw(5).txt
#Wave		#Intensity
1634.03	6.601269
1630.04	3.830798
1626.05	-6.908256
1622.05	100.883
1618.05	77.4862
1614.04	104.289
1610.04	240.368
1606.03	291.417
1602.01	502.879
1598	1558.09
1593.98	770.295
1589.95	291.556
1585.92	387.89
1581.89	1265.16
1577.86	774.032
1573.82	449.195
1569.78	142.28
1565.74	64.8632
1561.69	53.9431
1557.64	33.0983
1553.58	9.667331
1549.52	-1.662582
1545.46	11.3064
1541.4	9.298207
1537.33	14.3645
1533.26	-5.308490
1529.18	6.533963
1525.1	3.433625
1521.02	-7.246023
1516.93	20.8277
1512.85	4.781442
1508.75	49.3582
1504.66	159.283
1500.56	120.672
1496.45	38.2714
1492.35	60.1185
1488.24	35.7629
1484.12	28.276
1480.01	3.773151
1475.89	8.228015
1471.76	43.9974
1467.64	26.5825
1463.51	4.339253
1459.37	-3.441180
1455.23	12.8405
1451.09	2.644054
1446.95	2.077736
1442.8	8.723862
1438.65	-8.605395
1434.49	45.9963
1430.33	-4.806395
1426.17	-5.266319
1422	51.6583
1417.83	53.5907
1413.66	10.2138
1409.48	9.841166
1405.3	7.106658
1401.12	35.3284
1396.93	-10.194
1392.74	115.412
1388.54	43.7981
1384.35	19.7335
1380.14	-35.1026
1375.94	23.7788
1371.73	-19.1752
1367.52	-12.4504
1363.3	-3.407543
1359.08	22.0978
1354.86	42.8027
1350.63	61.07
1346.4	62.7822
1342.16	22.1155
1337.92	-16.1896
1333.68	18.2717
1329.44	26.8147
1325.19	28.2496
1320.93	6.206419
1316.68	-22.8808
1312.42	8.778550
1308.15	0.624807
1303.88	39.081
1299.61	40.1158
1295.34	27.1186
1291.06	53.6459
1286.77	247.462
1282.49	278.301
1278.2	325.291
1273.9	571.571
1269.61	1547.14
1265.3	458.638
1261	246.191
1256.69	299.824
1252.38	143.283
1248.06	125.414
1243.74	49.9768
1239.41	151.985
1235.09	306.752
1230.75	472.775
1226.42	287.201
1222.08	693.952
1217.74	398.586
1213.39	163.356
1209.04	38.451
1204.68	9.869044
1200.32	11.1178
1195.96	-24.061
1191.59	9.323805
1187.22	63.2528
1182.85	278.796
1178.47	123.381
1174.09	93.318
1169.7	65.6903
1165.31	-9.403717
1160.92	-16.2686
1156.52	-13.9507
1152.12	40.5027
1147.71	508.544
1143.3	345.893
1138.89	122.732
1134.47	26.2931
1130.05	47.2248
1125.63	27.7172
1121.2	24.0702
1116.76	132.804
1112.33	777.685
1107.88	614.44
1103.44	847.987
1098.99	309.153
1094.54	99.986
1090.08	168.21
1085.62	992.871
1081.15	794.886
1076.68	205.206
1072.21	126.256
1067.73	67.452
1063.25	82.0454
1058.76	305.219
1054.27	210.841
1049.78	27.9652
1045.28	26.8685
1040.78	3.590846
1036.27	4.581812
1031.76	-14.3817
1027.25	15.1142
1022.73	33.4374
1018.2	-1.214732
1013.68	5.868767
1009.15	-9.155250
1004.61	-4.520225
1000.07	8.748775
995.527	2.137316
990.979	17.2935
986.428	-2.713580
981.871	14.3249
977.311	-8.106683
972.746	-13.1871
968.178	9.933090
963.604	-8.491914
959.026	3.436757
954.445	30.4274
949.859	-7.889621
945.27	5.806271
940.675	21.5331
936.076	37.128
931.474	9.337458
926.866	-14.1652
922.255	24.913
917.639	16.397
913.019	48.7877
908.395	72.4619
903.766	5.716118
899.133	-2.902249
894.495	-13.6605
889.854	67.8396
885.207	59.1969
880.557	29.188
875.902	-9.281204
871.243	18.6182
866.579	138.33
861.911	767.665
857.239	287.807
852.562	38.8684
847.881	-13.8233
843.195	-0.434551
838.506	15.1671
833.812	22.3761
829.112	59.3615
824.409	178.965
819.701	835.663
814.989	52.3524
810.272	91.8011
805.552	38.5114
800.826	208.781
796.096	1536.55
791.361	660.16
786.622	172.106
781.879	39.7937
777.13	0.084706
772.378	-16.4298
767.62	6.915071
762.858	13.5358
758.093	55.6889
753.322	333.605
748.547	675.626
743.767	79.6374
738.982	52.8627
734.193	24.0098
729.399	20.0686
724.602	22.2758
719.799	90.7158
714.991	177.549
710.179	241.327
705.362	1673.25
700.541	2699.57
695.715	647.667
690.885	133.016
686.049	72.1961
681.209	77.1538
676.365	100.433
671.516	201.53
666.662	255.106
661.803	179.341
656.94	126.127
652.072	459.484
647.199	538.757
642.322	83.0062
637.44	11.5377
632.554	9.516043
627.662	5.540945
622.766	-4.404588
617.864	8.184287
612.959	-7.448522
608.048	-6.566964
603.133	10.8284
598.213	24.4972
593.288	66.8375
588.358	307.457
583.425	160.651
578.485	262.542
573.541	155.259
568.593	78.8103
563.639	31.057
558.681	17.8724
553.718	43.0711
548.749	118.432
543.776	173.554
538.799	38.2527
533.816	-13.442
528.829	13.8815
523.837	9.874695
518.84	25.9179
513.838	-2.354704
508.831	4.006494
503.819	8.296062
498.803	3.582121
493.781	24.4416