Folder: Determination-of-Trace-Organic-Contaminant-Concentration-via-Machine-Classification-of-Raman-Spectra/Finalized Code/CNN Models/RAMAN Data MITACs/TULSI/PMMA on Si substrate

Note: README.md
# Determination-of-Trace-Organic-Contaminant-Concentration-via-Machine-Classification-of-Raman-Spectra
Codebase and Data for "Determination-of-Trace-Organic-Contaminant-Concentration-via-Machine-Classification-of-Raman-Spectra."

Code files are given as Jupyter notebooks. Raw spectral data is availible as .csv files in all main folders under subfolder "RAMAN Data MITACs". Generated figures and raw data tables are availible in folder "Tables and Figures". Permission for usage of figures or diagrams is allowable with notification and citation. All files named "~Iterable.ipynb" in the folder "CNN Models" are CNN cross validation notebooks and are made to run on Niagara supercomputer(80 core), this may result in unintended phenomena if run on standard computers. "Key Functions.ipynb" contains all user defined functions for the codebase, a .py copy of this file is needed in all major folders. File paths used in "Key Functions.ipynb" may vary when downloaded, if this is the case please make the appropriate changes and update all the folders with "Key Functions.py".

File: Si-hydrophilic-blank with PMMA-4.txt
#Wave		#Intensity
1800.53	6878.98
1795.68	6968.45
1790.83	6787.13
1785.97	6834.14
1781.11	6561.17
1776.24	6546.94
1771.37	6568.48
1766.49	6393.52
1761.61	6320.85
1756.72	6103.18
1751.83	6132.68
1746.93	6065.54
1742.03	5737.06
1737.12	5893.61
1732.21	5745.82
1727.29	5659.06
1722.37	5633.15
1717.44	5463.31
1712.51	5493.15
1707.57	5364.11
1702.63	5343.6
1697.68	5036.34
1692.73	5146.88
1687.77	5056.33
1682.81	4983.52
1677.84	4860.74
1672.87	4760.72
1667.89	4663.4
1662.91	4718.64
1657.92	4591.6
1652.93	4492.24
1647.94	4385.59
1642.93	4490.62
1637.93	4289.74
1632.91	4280.44
1627.9	4162.01
1622.87	4147.88
1617.85	4076.85
1612.81	3981.23
1607.78	4051.3
1602.73	3909
1597.68	3885.31
1592.63	3738.52
1587.57	3722.43
1582.51	3664.58
1577.44	3552.82
1572.37	3448.64
1567.29	3565.2
1562.2	3500.38
1557.12	3381.89
1552.02	3283.18
1546.92	3248.11
1541.82	3261.86
1536.71	3146.51
1531.59	3196.83
1526.47	3178.99
1521.34	3192.74
1516.21	3056.08
1511.08	3043.27
1505.94	2902.19
1500.79	2889.55
1495.64	2886.6
1490.48	2842.62
1485.32	2866.23
1480.15	2779.01
1474.98	2723.24
1469.8	2787.74
1464.61	2768.08
1459.42	2611.75
1454.23	2635.43
1449.03	2644.69
1443.83	2560.69
1438.62	2615.38
1433.4	2488.62
1428.18	2457.46
1422.95	2495.41
1417.72	2331.1
1412.48	2361.97
1407.24	2302.56
1401.99	2127.09
1396.74	2174.64
1391.48	2222.1
1386.22	2198.53
1380.95	2170.28
1375.67	2116.14
1370.39	2151.67
1365.1	2137.67
1359.81	2050.8
1354.52	2083.92
1349.21	1992.58
1343.91	2009.28
1338.59	1932.25
1333.27	1841.34
1327.95	1909.55
1322.62	1940.26
1317.28	1767.99
1311.94	1819.74
1306.59	1827.17
1301.24	1762.49
1295.88	1783.89
1290.52	1756.51
1285.15	1685.15
1279.78	1676.45
1274.4	1658.52
1269.01	1608.27
1263.62	1668.92
1258.22	1692.55
1252.82	1596.34
1247.41	1553.26
1242	1528.65
1236.58	1538.54
1231.16	1507.11
1225.72	1411.59
1220.29	1494.81
1214.85	1479.53
1209.4	1464.28
1203.94	1453.62
1198.49	1468.05
1193.02	1298.01
1187.55	1469.53
1182.07	1295.29
1176.59	1346.14
1171.1	1290.31
1165.61	1313.88
1160.11	1307.97
1154.61	1293.04
1149.09	1352.65
1143.58	1308.37
1138.05	1282.21
1132.53	1379.91
1126.99	1322.24
1121.45	1359.03
1115.91	1332.92
1110.35	1266.51
1104.8	1189.04
1099.23	1239.24
1093.66	1233.46
1088.09	1196.45
1082.51	1195.19
1076.92	1158.28
1071.33	1179.31
1065.73	1173.62
1060.12	1196.81
1054.51	1215.5
1048.9	1327.22
1043.28	1254.99
1037.65	1470.34
1032.01	1804.51
1026.37	2001.17
1020.73	2151.12
1015.07	2375.62
1009.42	2670.01
1003.75	3135.14
998.08	3555.39
992.404	4838.52
986.722	6629.2
981.033	7731.31
975.338	8182.02
969.638	8426.55
963.931	8609.48
958.218	9181.95
952.499	9751
946.774	10455.8
941.043	11910.4
935.306	10908.5
929.562	7521
923.813	3528.13
918.058	2663.81
912.296	2550.81
906.528	2407.84
900.754	2312.59
894.974	2228.31
889.188	2195.81
883.395	2163.39
877.596	2100.98
871.791	2130.88
865.979	2040.8
860.162	1972.3
854.338	1959.5
848.508	1912.57
842.672	1985.14
836.829	1959.58
830.979	1923.43
825.125	1968.12
819.264	1999.97
813.396	1906.62
807.521	1896.1
801.641	1758.61
795.754	1716.55
789.86	1607.01
783.961	1560.97
778.056	1580.36
772.143	1469.2
766.225	1476.03
760.299	1409.32
754.368	1414.09
748.43	1349.69
742.485	1348.23
736.535	1269.39
730.577	1339.04
724.614	1287.51
718.644	1261.1
712.667	1259.73
706.684	1295.81
700.694	1508.4
694.698	1566.95
688.695	1615.01
682.687	1778.92
676.671	1921.8
670.648	2072.62
664.619	2057.98
658.584	1894.91
652.542	1950.52
646.493	1849.64
640.438	1849.67
634.376	1870.24
628.308	1983.04
622.233	2255.37
616.151	2203.8
610.062	1890.7
603.968	1741.63
597.866	1590.84
591.758	1407.78
585.643	1461.18
579.521	1455.52
573.393	1346.3
567.258	1616.63
561.115	1858
554.967	2193.96
548.812	2854.67
542.649	3861.29
536.48	5971.17
530.305	12553.9
524.122	64026.8
517.933	294163
511.736	21307.4
505.534	7609.57
499.324	4132.26
493.107	3086.77
486.884	2569.47
480.653	2099.25
474.416	1783.69
468.172	1632.25
461.921	1538.87
455.663	1515.3
449.397	1928.77
443.126	2259.98
436.848	2665.77
430.562	2985.53
424.269	2812.15
417.969	2645.07
411.662	2580.97
405.349	2656.95
400.293	2644.74

File: Si-hydrophobic-blank with PMMA-1.txt
#Wave		#Intensity
1800.53	2489.07
1795.68	2369.02
1790.83	2382.03
1785.97	2471.87
1781.11	2351.68
1776.24	2479.71
1771.37	2321.44
1766.49	2405.86
1761.61	2423.84
1756.72	2482.52
1751.83	2429.16
1746.93	2464.84
1742.03	2403.98
1737.12	2487.79
1732.21	2447.29
1727.29	2515.7
1722.37	2583.97
1717.44	2465.18
1712.51	2561.11
1707.57	2540.89
1702.63	2659.21
1697.68	2804.96
1692.73	2983.08
1687.77	3703.12
1682.81	4542.1
1677.84	4870.76
1672.87	5031.04
1667.89	5108.49
1662.91	4448.86
1657.92	3538.53
1652.93	3123.62
1647.94	2851.51
1642.93	2647.11
1637.93	2733.9
1632.91	2639.27
1627.9	2693.65
1622.87	2757.82
1617.85	2764.93
1612.81	2809.11
1607.78	3317.62
1602.73	5480.98
1597.68	9617.12
1592.63	5841.75
1587.57	3914.33
1582.51	3352.44
1577.44	3447.24
1572.37	3046.38
1567.29	2898.72
1562.2	2766.04
1557.12	2697.2
1552.02	2533.22
1546.92	2511.12
1541.82	2479.31
1536.71	2464.61
1531.59	2510.75
1526.47	2554.37
1521.34	2549.34
1516.21	2420.61
1511.08	2393.91
1505.94	2510.07
1500.79	2478.49
1495.64	2632.96
1490.48	2917.43
1485.32	2601.06
1480.15	2682.69
1474.98	2728.05
1469.8	2778.13
1464.61	2912.13
1459.42	3141.78
1454.23	3181.68
1449.03	3109.01
1443.83	3266.01
1438.62	3119.35
1433.4	2860.84
1428.18	2667.21
1422.95	2543.03
1417.72	2599.89
1412.48	2514.04
1407.24	2530.45
1401.99	2530.21
1396.74	2634.21
1391.48	2600.73
1386.22	2692.61
1380.95	2678.02
1375.67	2710.65
1370.39	2719.63
1365.1	2533.19
1359.81	2676.39
1354.52	2758.2
1349.21	2642.7
1343.91	2656.37
1338.59	2742.63
1333.27	2723.41
1327.95	2732.28
1322.62	2724.78
1317.28	2773.27
1311.94	2779.71
1306.59	2679.07
1301.24	2648.39
1295.88	2694.42
1290.52	2726.42
1285.15	2844.12
1279.78	3137.56
1274.4	3298.53
1269.01	3357.49
1263.62	3515.58
1258.22	3666.41
1252.82	3358.53
1247.41	3138.73
1242	3034.31
1236.58	2893.37
1231.16	2881.17
1225.72	2907.96
1220.29	2740.1
1214.85	2792.12
1209.4	2882.86
1203.94	2920.93
1198.49	3143.55
1193.02	3463.63
1187.55	3933.16
1182.07	3919.96
1176.59	4383.48
1171.1	4843.76
1165.61	4353.91
1160.11	4894.71
1154.61	3883.63
1149.09	3312.75
1143.58	3257.39
1138.05	3021.86
1132.53	3095.22
1126.99	2988.53
1121.45	2985.38
1115.91	2816.19
1110.35	2750.46
1104.8	2682.62
1099.23	2802.83
1093.66	2634.52
1088.09	2645.13
1082.51	2836.34
1076.92	2699.69
1071.33	2565.56
1065.73	2727.34
1060.12	2671.17
1054.51	2657.25
1048.9	2716.48
1043.28	2813.21
1037.65	3210.43
1032.01	6093.8
1026.37	3713.3
1020.73	2962.2
1015.07	3051.53
1009.42	3615.73
1003.75	11011.4
998.08	8671.19
992.404	4823.17
986.722	4785.2
981.033	4088.8
975.338	3649.56
969.638	3669.7
963.931	4045.24
958.218	4328.48
952.499	3969.17
946.774	3623.66
941.043	3582.88
935.306	3652.81
929.562	3289.22
923.813	3121.2
918.058	2856.25
912.296	2835.92
906.528	2778.95
900.754	2726.4
894.974	2779.46
889.188	2800.15
883.395	2820.78
877.596	2691.14
871.791	2885.48
865.979	2775.32
860.162	3058.99
854.338	3194.6
848.508	3110.06
842.672	3074.73
836.829	3452.69
830.979	3359.62
825.125	3032.95
819.264	2944.76
813.396	2867.36
807.521	2951.13
801.641	2971.23
795.754	3268.22
789.86	2924.71
783.961	2896.24
778.056	2905.76
772.143	2852.1
766.225	2785.95
760.299	2829.14
754.368	2836.57
748.43	2833.51
742.485	2843
736.535	2781.37
730.577	2924.59
724.614	2963.15
718.644	3112.11
712.667	3112.9
706.684	3207.28
700.694	4886.72
694.698	7347.03
688.695	4847.09
682.687	3533
676.671	2987.16
670.648	2981.85
664.619	2854.75
658.584	2787.73
652.542	2877.38
646.493	2843.38
640.438	2838.22
634.376	2982.94
628.308	3090.42
622.233	3775.34
616.151	4945.75
610.062	3260.18
603.968	3040.19
597.866	3406.02
591.758	3766.97
585.643	3370.08
579.521	2923.23
573.393	2942.36
567.258	2967.54
561.115	2826.5
554.967	2977.22
548.812	2923.41
542.649	3005.02
536.48	3161.09
530.305	3383.3
524.122	6145.24
517.933	15570.4
511.736	3739.69
505.534	3079.54
499.324	3074.14
493.107	2890.59
486.884	2959.39
480.653	2904.2
474.416	2994.77
468.172	3019.36
461.921	2912.51
455.663	3016.67
449.397	2965.66
443.126	2926.67
436.848	3070.1
430.562	3159.75
424.269	3223.49
417.969	3162.63
411.662	3165.04
405.349	3295.56
400.293	3282.79

File: Si-hydrophobic-with PMMA-1.txt
#Wave		#Intensity
1800.53	133231
1795.68	133371
1790.83	133353
1785.97	133691
1781.11	132823
1776.24	134323
1771.37	132971
1766.49	134310
1761.61	134150
1756.72	135240
1751.83	136109
1746.93	136092
1742.03	136913
1737.12	136986
1732.21	137814
1727.29	138090
1722.37	138285
1717.44	138775
1712.51	138880
1707.57	139268
1702.63	140054
1697.68	140799
1692.73	141238
1687.77	142765
1682.81	143245
1677.84	144331
1672.87	147082
1667.89	149006
1662.91	150050
1657.92	152519
1652.93	154217
1647.94	158980
1642.93	161777
1637.93	166728
1632.91	171188
1627.9	178299
1622.87	186903
1617.85	197085
1612.81	207452
1607.78	221935
1602.73	236363
1597.68	255304
1592.63	273841
1587.57	285899
1582.51	297165
1577.44	310524
1572.37	322269
1567.29	335974
1562.2	349035
1557.12	360970
1552.02	368998
1546.92	379070
1541.82	387031
1536.71	397106
1531.59	404080
1526.47	406952
1521.34	410251
1516.21	418465
1511.08	425791
1505.94	431206
1500.79	433368
1495.64	434033
1490.48	433252
1485.32	432437
1480.15	428837
1474.98	421085
1469.8	411644
1464.61	402771
1459.42	387376
1454.23	374720
1449.03	365939
1443.83	357442
1438.62	347275
1433.4	337515
1428.18	324926
1422.95	312865
1417.72	305730
1412.48	300773
1407.24	297270
1401.99	291688
1396.74	290516
1391.48	292469
1386.22	291043
1380.95	287314
1375.67	283705
1370.39	282460
1365.1	281349
1359.81	280920
1354.52	278193
1349.21	277232
1343.91	275942
1338.59	277825
1333.27	278214
1327.95	280805
1322.62	282501
1317.28	288807
1311.94	297152
1306.59	303777
1301.24	311410
1295.88	319576
1290.52	324950
1285.15	328910
1279.78	334998
1274.4	340879
1269.01	336317
1263.62	329278
1258.22	324503
1252.82	321921
1247.41	317352
1242	315681
1236.58	312270
1231.16	309377
1225.72	310045
1220.29	315432
1214.85	319944
1209.4	328256
1203.94	336249
1198.49	346646
1193.02	361524
1187.55	381920
1182.07	404292
1176.59	426784
1171.1	297891
1165.61	306346
1160.11	310553
1154.61	310390
1149.09	306751
1143.58	302120
1138.05	288893
1132.53	414442
1126.99	396374
1121.45	377859
1115.91	357014
1110.35	334742
1104.8	317710
1099.23	301551
1093.66	288733
1088.09	276507
1082.51	268348
1076.92	262432
1071.33	256538
1065.73	251106
1060.12	243882
1054.51	234768
1048.9	228818
1043.28	223722
1037.65	220905
1032.01	219781
1026.37	218893
1020.73	215571
1015.07	213924
1009.42	213884
1003.75	216773
998.08	229445
992.404	222800
986.722	229963
981.033	235785
975.338	239877
969.638	242957
963.931	244899
958.218	250182
952.499	254333
946.774	257143
941.043	256964
935.306	252410
929.562	243723
923.813	238168
918.058	228932
912.296	222670
906.528	218622
900.754	217759
894.974	218751
889.188	219383
883.395	219366
877.596	218306
871.791	216210
865.979	212941
860.162	211207
854.338	210952
848.508	208954
842.672	207918
836.829	204772
830.979	202194
825.125	198625
819.264	192165
813.396	187267
807.521	182241
801.641	178752
795.754	175824
789.86	172315
783.961	169195
778.056	167158
772.143	167230
766.225	166671
760.299	166065
754.368	166391
748.43	165083
742.485	163801
736.535	163998
730.577	164105
724.614	164551
718.644	162505
712.667	163134
706.684	165052
700.694	167227
694.698	169152
688.695	172555
682.687	172659
676.671	172740
670.648	173739
664.619	173793
658.584	170775
652.542	167228
646.493	165659
640.438	166105
634.376	165320
628.308	164826
622.233	165582
616.151	166914
610.062	164391
603.968	159542
597.866	156593
591.758	155336
585.643	155585
579.521	155982
573.393	155970
567.258	154568
561.115	153087
554.967	155166
548.812	157504
542.649	158048
536.48	160217
530.305	167591
524.122	218819
517.933	430635
511.736	181534
505.534	168827
499.324	167443
493.107	167675
486.884	169061
480.653	167998
474.416	169014
468.172	169094
461.921	167803
455.663	166784
449.397	168282
443.126	169354
436.848	171446
430.562	172567
424.269	172463
417.969	174419
411.662	177894
405.349	181634
400.293	181995