Folder: Determination-of-Trace-Organic-Contaminant-Concentration-via-Machine-Classification-of-Raman-Spectra/Finalized Code/RAMAN Data MITACs/TULSI/PMMA on Si substrate

Note: README.md
# Determination-of-Trace-Organic-Contaminant-Concentration-via-Machine-Classification-of-Raman-Spectra
Codebase and Data for "Determination-of-Trace-Organic-Contaminant-Concentration-via-Machine-Classification-of-Raman-Spectra."

Code files are given as Jupyter notebooks. Raw spectral data is availible as .csv files in all main folders under subfolder "RAMAN Data MITACs". Generated figures and raw data tables are availible in folder "Tables and Figures". Permission for usage of figures or diagrams is allowable with notification and citation. All files named "~Iterable.ipynb" in the folder "CNN Models" are CNN cross validation notebooks and are made to run on Niagara supercomputer(80 core), this may result in unintended phenomena if run on standard computers. "Key Functions.ipynb" contains all user defined functions for the codebase, a .py copy of this file is needed in all major folders. File paths used in "Key Functions.ipynb" may vary when downloaded, if this is the case please make the appropriate changes and update all the folders with "Key Functions.py".

File: Si-hydrophilic-blank with PMMA.txt
#Wave		#Intensity
2001.44	3771.76
1995.86	3224.78
1990.27	3223.65
1984.68	3251.88
1979.08	3101.37
1973.47	3137.66
1967.86	3144.59
1962.24	3055.84
1956.61	3100
1950.98	2971.73
1945.34	2830.52
1939.7	2872.13
1934.04	2863.44
1928.38	2976.13
1922.72	2880.37
1917.04	2821.67
1911.36	2681.61
1905.68	2670.55
1899.98	2664.75
1894.28	2763.75
1888.58	2564.22
1882.86	2574.23
1877.14	2537.23
1871.42	2422.1
1865.68	2549.42
1859.94	2429.33
1854.19	2410.85
1848.44	2446.89
1842.67	2397.32
1836.91	2412.58
1831.13	2311.44
1825.35	2290.6
1819.56	2313.65
1813.76	2285.12
1807.96	2279.81
1802.15	2248.81
1796.33	2171.67
1790.51	2097.28
1784.68	2120.37
1778.84	2053.89
1772.99	2030.98
1767.14	2054.06
1761.28	2051.59
1755.42	1911.67
1749.54	1911.91
1743.66	1957.86
1737.78	1836.29
1731.88	1821.42
1725.98	1882.48
1720.07	1872.63
1714.15	1857.75
1708.23	1845.42
1702.3	1772.69
1696.36	1757.97
1690.42	1770.92
1684.47	1751.22
1678.51	1751.6
1672.54	1809.55
1666.57	1744.87
1660.59	1667.85
1654.6	1653.36
1648.6	1614
1642.6	1612.04
1636.59	1620.02
1630.58	1600.68
1624.55	1586.35
1618.52	1576.99
1612.48	1481.11
1606.43	1513.89
1600.38	1583.58
1594.32	1532.38
1588.25	1402.56
1582.17	1486.87
1576.09	1416.32
1570	1429.31
1563.9	1449.6
1557.8	1452.72
1551.68	1397.21
1545.56	1366.23
1539.43	1430.35
1533.3	1282.57
1527.16	1404.97
1521	1238.16
1514.85	1297.27
1508.68	1356.22
1502.51	1289.25
1496.33	1273.18
1490.14	1387.43
1483.94	1277.28
1477.74	1244.42
1471.53	1245.3
1465.31	1241.37
1459.08	1242.24
1452.85	1334.12
1446.61	1349.22
1440.36	1232.88
1434.1	1279.08
1427.83	1206
1421.56	1133.1
1415.28	1271.98
1408.99	1227.66
1402.7	1211.92
1396.39	1212.79
1390.08	1123.75
1383.76	1143.63
1377.43	1165.81
1371.1	1159.66
1364.75	1155.87
1358.4	1142.68
1352.04	1181.18
1345.68	1111.7
1339.3	1112.66
1332.92	1162.75
1326.53	1072.51
1320.13	1152.86
1313.73	1025.56
1307.31	1122.06
1300.89	1139.26
1294.46	1065.86
1288.02	1127.15
1281.57	1053.94
1275.12	1061.88
1268.66	1060.55
1262.19	1073.07
1255.71	1009.5
1249.22	1038.17
1242.72	1039.17
1236.22	978.166
1229.71	997.581
1223.19	1062.75
1216.66	999.659
1210.13	920.727
1203.58	1015.41
1197.03	984.508
1190.47	1026.52
1183.9	950.211
1177.33	1046.64
1170.74	972.767
1164.15	996.455
1157.54	1072.1
1150.93	946.509
1144.32	985.927
1137.69	1018.48
1131.05	1008.2
1124.41	1004.68
1117.76	1001.16
1111.1	990.932
1104.43	1041.18
1097.75	950.413
1091.07	976.012
1084.37	1003.77
1077.67	991.365
1070.96	1030.16
1064.24	1011.08
1057.51	1003.14
1050.77	992.997
1044.03	1082.5
1037.27	1196.09
1030.51	1388.88
1023.74	1448.86
1016.96	1574.76
1010.17	1810.32
1003.38	2152.92
996.57	2556.08
989.756	3560.81
982.933	4390.07
976.101	4812.87
969.26	5123.24
962.411	5443.71
955.553	5600.06
948.687	6101.74
941.811	6695.51
934.926	6378.95
928.033	3808.17
921.131	2046.59
914.22	1782.53
907.301	1732.77
900.372	1737.02
893.435	1601.34
886.487	1575.64
879.532	1558.59
872.567	1524.42
865.595	1531.03
858.612	1544.03
851.621	1445.93
844.62	1497.39
837.611	1467.77
830.593	1510.55
823.565	1508.6
816.528	1508.78
809.482	1483.51
802.428	1485.83
795.364	1412.04
788.291	1302.55
781.209	1330.38
774.117	1311.81
767.017	1207.07
759.907	1262.21
752.788	1250.08
745.659	1206.57
738.522	1144.33
731.375	1190.9
724.219	1122.58
717.054	1127.37
709.879	1142.55
702.694	1259.54
695.501	1307.71
688.298	1403.44
681.086	1428.52
673.864	1521.77
666.633	1596.19
659.392	1472.43
652.142	1534.35
644.882	1501.49
637.613	1485.15
630.335	1546.8
623.046	1665.65
615.749	1643.01
608.441	1510.08
601.124	1348.92
593.798	1294.16
586.462	1221.22
579.116	1258.24
571.761	1254.56
564.396	1386.71
557.021	1552.93
549.636	1838.02
542.241	2544.39
534.837	4337.91
527.424	12076.2
520	224838
512.566	15256.2
505.123	4583.87
497.67	2608.45
490.207	2032.78
482.734	1754.35
475.251	1456.7
467.759	1375.05
460.256	1249.84
452.743	1429.05
445.221	1665.34
437.688	1916.86
430.146	2106.34
422.593	1945.38
415.03	1917.13
407.457	1918.52
399.874	1949.44
392.281	2001.91
384.678	2036.56
377.064	2131.91
369.441	2103.6
361.808	2118.4
354.164	2303.1
346.51	2401.46
338.846	2624.24
331.171	2780.27
323.486	3196.24
315.791	3869.16
308.086	5003.4
300.37	7202.82
292.644	3842.02
284.907	3006.96
277.16	2686.82
269.402	2469.56
261.635	2285.54
253.856	2132.74
246.068	2158.62
238.269	1977.67
230.459	1971.18
222.639	1575.2
214.808	1370.96
206.966	1237.72
200.424	1154.54

File: Si-hydrophilic-with PMMA-1.txt
#Wave		#Intensity
1800.53	29686.5
1795.68	29811.6
1790.83	29869
1785.97	30533.3
1781.11	30507.9
1776.24	30257.5
1771.37	30490.3
1766.49	30620.5
1761.61	30299.3
1756.72	30918.2
1751.83	30945.7
1746.93	31298.4
1742.03	31706.2
1737.12	31514.6
1732.21	32012.4
1727.29	32015.7
1722.37	32592.9
1717.44	32769.8
1712.51	32529.9
1707.57	33140
1702.63	32937.9
1697.68	33521.1
1692.73	34020.2
1687.77	34242
1682.81	34162.3
1677.84	34719.2
1672.87	34917
1667.89	35544.4
1662.91	36287.9
1657.92	37536.4
1652.93	38832.2
1647.94	40932.2
1642.93	44458.4
1637.93	48295.6
1632.91	52656.3
1627.9	56576.5
1622.87	60159.2
1617.85	64358.3
1612.81	71182.3
1607.78	80645.6
1602.73	88135
1597.68	95128.4
1592.63	100122
1587.57	102853
1582.51	104928
1577.44	107643
1572.37	114708
1567.29	122432
1562.2	131215
1557.12	138479
1552.02	143194
1546.92	144623
1541.82	144339
1536.71	142258
1531.59	139751
1526.47	139559
1521.34	135697
1516.21	131414
1511.08	124483
1505.94	118174
1500.79	108855
1495.64	100111
1490.48	94981.7
1485.32	92809
1480.15	91825.4
1474.98	90795.6
1469.8	90214.7
1464.61	90664.9
1459.42	90044.3
1454.23	84587.6
1449.03	79099
1443.83	75625.1
1438.62	74133.5
1433.4	71470.9
1428.18	68234.4
1422.95	64902.2
1417.72	62085.7
1412.48	59883.2
1407.24	60410.3
1401.99	60872.1
1396.74	61032.1
1391.48	60872.2
1386.22	62081.3
1380.95	60305.1
1375.67	57744.6
1370.39	55611.1
1365.1	54579
1359.81	53690
1354.52	53169.4
1349.21	53229.4
1343.91	52759.4
1338.59	52465.9
1333.27	53165
1327.95	52930
1322.62	53141.3
1317.28	55274.1
1311.94	57316.1
1306.59	59267.7
1301.24	61510.5
1295.88	64645.1
1290.52	65684.8
1285.15	66599.3
1279.78	66449.1
1274.4	66565
1269.01	65830.3
1263.62	65159.3
1258.22	64471.2
1252.82	64111.5
1247.41	63197.9
1242	62322.9
1236.58	61936.4
1231.16	60635.4
1225.72	59062
1220.29	59380.3
1214.85	59574.4
1209.4	60638.4
1203.94	61946.5
1198.49	62013.9
1193.02	63718.4
1187.55	66342.8
1182.07	70261.5
1176.59	77241
1171.1	83310
1165.61	90387.8
1160.11	95739.9
1154.61	93889.8
1149.09	89040
1143.58	83870.9
1138.05	80979.6
1132.53	75545.9
1126.99	68302.1
1121.45	63535.4
1115.91	57490.6
1110.35	54177.5
1104.8	51661.8
1099.23	49849.2
1093.66	46552.1
1088.09	45114.6
1082.51	44716.9
1076.92	46061.9
1071.33	46874.4
1065.73	45860.2
1060.12	44215.2
1054.51	41981.5
1048.9	41680
1043.28	41328.3
1037.65	41837.3
1032.01	39160.2
1026.37	37945
1020.73	37801.2
1015.07	37833.7
1009.42	38893.3
1003.75	39711
998.08	42039.1
992.404	42172.1
986.722	44794.7
981.033	46320.1
975.338	46784.4
969.638	47452.8
963.931	48582.1
958.218	50257.8
952.499	52369.5
946.774	55028.7
941.043	56270.7
935.306	53421.2
929.562	48421.7
923.813	43136.3
918.058	41594
912.296	40797.9
906.528	38266.6
900.754	36949.8
894.974	36249.3
889.188	36401.9
883.395	36176
877.596	36622.3
871.791	38435.2
865.979	37209.8
860.162	36633
854.338	36416.3
848.508	36678.2
842.672	36564.1
836.829	37059.5
830.979	38045.2
825.125	41292.3
819.264	41165.1
813.396	38817.5
807.521	35193.3
801.641	34914.1
795.754	33891.4
789.86	32290
783.961	32088.6
778.056	31554.5
772.143	32101.4
766.225	32787.9
760.299	31847.3
754.368	31861.1
748.43	32040.4
742.485	32472.6
736.535	32688.4
730.577	31370.4
724.614	30697.8
718.644	31375.4
712.667	32472
706.684	32765.4
700.694	32727.8
694.698	33777.7
688.695	35242
682.687	35870.5
676.671	34675.1
670.648	34916.4
664.619	34903.1
658.584	32617.6
652.542	32590.3
646.493	32227.7
640.438	32340.5
634.376	32779.5
628.308	31566.6
622.233	32144.7
616.151	33253.4
610.062	31475.6
603.968	30224.3
597.866	29365.2
591.758	29051.9
585.643	28240.7
579.521	28285
573.393	29364.8
567.258	29904.6
561.115	29539.5
554.967	30794.3
548.812	31508.6
542.649	32291.9
536.48	34993.9
530.305	42842.4
524.122	102442
517.933	370060
511.736	54910.4
505.534	40720.2
499.324	35589.1
493.107	33918.4
486.884	33145.2
480.653	33198.5
474.416	33116
468.172	33607.6
461.921	32577.1
455.663	32909
449.397	33851.9
443.126	35003
436.848	35461.7
430.562	36440.1
424.269	38021.3
417.969	36626.1
411.662	37128.1
405.349	37556
400.293	37648.7

File: Si-hydrophilic-with PMMA-2.txt
#Wave		#Intensity
1800.53	27849.9
1795.68	27514.5
1790.83	28217.7
1785.97	27871.9
1781.11	27928.5
1776.24	28023.2
1771.37	28368.1
1766.49	28472.3
1761.61	28535.6
1756.72	28736.1
1751.83	28877.8
1746.93	28823.4
1742.03	29223.5
1737.12	29359
1732.21	28914.1
1727.29	29307.7
1722.37	29713.1
1717.44	29410.5
1712.51	29830
1707.57	29686.6
1702.63	30004.2
1697.68	29752.7
1692.73	29534.2
1687.77	29343.8
1682.81	29740.6
1677.84	30269.4
1672.87	30634.3
1667.89	30881
1662.91	31371.9
1657.92	31916.6
1652.93	32163.6
1647.94	33513.3
1642.93	34392.5
1637.93	35968.2
1632.91	38019.9
1627.9	39764.8
1622.87	43131.5
1617.85	45513.7
1612.81	48301.4
1607.78	51705.9
1602.73	55614.3
1597.68	60325.8
1592.63	66522.6
1587.57	71018.9
1582.51	75506
1577.44	80114
1572.37	83996.3
1567.29	87846.1
1562.2	92390.5
1557.12	93974
1552.02	94826.1
1546.92	97401.8
1541.82	101783
1536.71	103850
1531.59	107527
1526.47	113078
1521.34	118032
1516.21	117860
1511.08	119441
1505.94	119568
1500.79	115338
1495.64	113268
1490.48	110915
1485.32	107760
1480.15	104634
1474.98	101857
1469.8	98277.6
1464.61	96009
1459.42	93562.6
1454.23	89808.2
1449.03	85360.1
1443.83	82836.1
1438.62	80111.8
1433.4	77519.4
1428.18	77170.4
1422.95	78750.7
1417.72	79804.4
1412.48	78736.1
1407.24	75661.8
1401.99	72154.9
1396.74	70446.1
1391.48	69315.7
1386.22	70785.5
1380.95	73744.8
1375.67	73064.8
1370.39	70062.3
1365.1	68280.8
1359.81	67239
1354.52	66429.4
1349.21	66628.3
1343.91	65443.4
1338.59	64539.5
1333.27	63827
1327.95	63169.6
1322.62	63970.4
1317.28	64167.6
1311.94	65177.6
1306.59	67128
1301.24	70281.1
1295.88	73453
1290.52	73277
1285.15	73893.9
1279.78	76301.7
1274.4	76153
1269.01	74317.6
1263.62	73370
1258.22	71635.7
1252.82	70305.7
1247.41	72374.8
1242	73952.1
1236.58	74795.8
1231.16	73469.9
1225.72	73507.8
1220.29	72211
1214.85	70713.2
1209.4	71893.4
1203.94	75227.6
1198.49	76831.2
1193.02	79394.7
1187.55	82164.2
1182.07	85461.9
1176.59	88888.7
1171.1	91630.1
1165.61	95373.7
1160.11	98914.8
1154.61	101761
1149.09	103678
1143.58	104117
1138.05	103622
1132.53	99904.8
1126.99	93982.3
1121.45	88069.9
1115.91	81781.7
1110.35	76055.7
1104.8	70720.1
1099.23	68379.6
1093.66	65829.4
1088.09	64467.6
1082.51	62943.5
1076.92	61135.2
1071.33	58665.3
1065.73	55744.8
1060.12	54919.9
1054.51	53668.5
1048.9	53188.5
1043.28	51779.9
1037.65	49591.4
1032.01	48266.7
1026.37	47635.3
1020.73	46775.9
1015.07	44749.2
1009.42	45390.2
1003.75	46073.6
998.08	47969.2
992.404	48635.1
986.722	51599.1
981.033	54057.9
975.338	56028.5
969.638	59507.6
963.931	62283.5
958.218	62938.3
952.499	61130.4
946.774	62076
941.043	62850.2
935.306	60932.9
929.562	55721.7
923.813	49662.2
918.058	47250.2
912.296	47657.7
906.528	45091
900.754	46198
894.974	46785.8
889.188	48600.4
883.395	50136
877.596	48914.8
871.791	47016.6
865.979	46533.7
860.162	46216.3
854.338	45168.8
848.508	44994.4
842.672	45012.2
836.829	43639
830.979	43032.5
825.125	42123.3
819.264	40360.4
813.396	39322.3
807.521	38712.2
801.641	36272.7
795.754	36366.8
789.86	37725.6
783.961	37079.5
778.056	38141.5
772.143	40125.2
766.225	39009.5
760.299	36783
754.368	35241.1
748.43	36429
742.485	36119.5
736.535	35609.9
730.577	35331.1
724.614	35620.4
718.644	35738.2
712.667	35714
706.684	35958.1
700.694	34982
694.698	34832
688.695	35503.2
682.687	36684.4
676.671	38504.2
670.648	39148.4
664.619	37700.1
658.584	36531.2
652.542	35393.6
646.493	36200.6
640.438	35528.1
634.376	36702.7
628.308	38389.3
622.233	38509.3
616.151	38829.4
610.062	36548.8
603.968	35506.3
597.866	34243.8
591.758	32582.6
585.643	31710.5
579.521	31649.4
573.393	31003.5
567.258	32632.8
561.115	33099.5
554.967	34073.1
548.812	35610.6
542.649	37080.1
536.48	38955.8
530.305	44001
524.122	92305.4
517.933	316557
511.736	60064
505.534	50181.5
499.324	42797.5
493.107	41094.9
486.884	38798.1
480.653	38815.2
474.416	37964.3
468.172	37713.1
461.921	37410.7
455.663	36599.8
449.397	39306.5
443.126	39711.4
436.848	39011.4
430.562	38865.3
424.269	38337.8
417.969	38368.4
411.662	38913.8
405.349	38413.4
400.293	37898.8

File: Si-hydrophobic-with PMMA-3.txt
#Wave		#Intensity
1800.53	150230
1795.68	150765
1790.83	151194
1785.97	151409
1781.11	151682
1776.24	151784
1771.37	151634
1766.49	152245
1761.61	151978
1756.72	152137
1751.83	152419
1746.93	153194
1742.03	152933
1737.12	154654
1732.21	154785
1727.29	154531
1722.37	154626
1717.44	154832
1712.51	154855
1707.57	155257
1702.63	155325
1697.68	154491
1692.73	156055
1687.77	157226
1682.81	158434
1677.84	159074
1672.87	159827
1667.89	161294
1662.91	163694
1657.92	164891
1652.93	166023
1647.94	168194
1642.93	171726
1637.93	176704
1632.91	180493
1627.9	186144
1622.87	192981
1617.85	202914
1612.81	212395
1607.78	224808
1602.73	238557
1597.68	253805
1592.63	270600
1587.57	286132
1582.51	302926
1577.44	321315
1572.37	336871
1567.29	349454
1562.2	362637
1557.12	372093
1552.02	380663
1546.92	389612
1541.82	398340
1536.71	409768
1531.59	417471
1526.47	423780
1521.34	429225
1516.21	432983
1511.08	440103
1505.94	290742
1500.79	290952
1495.64	438712
1490.48	432265
1485.32	430195
1480.15	431212
1474.98	429043
1469.8	421019
1464.61	410569
1459.42	400761
1454.23	391593
1449.03	386187
1443.83	381882
1438.62	376954
1433.4	368516
1428.18	363482
1422.95	364083
1417.72	370035
1412.48	374139
1407.24	370542
1401.99	367123
1396.74	361730
1391.48	349650
1386.22	341729
1380.95	337636
1375.67	328394
1370.39	322583
1365.1	320872
1359.81	320071
1354.52	319963
1349.21	319930
1343.91	319736
1338.59	319749
1333.27	319004
1327.95	316322
1322.62	312464
1317.28	309666
1311.94	309049
1306.59	311356
1301.24	319692
1295.88	326981
1290.52	335060
1285.15	340328
1279.78	341230
1274.4	331932
1269.01	322201
1263.62	315236
1258.22	310388
1252.82	309210
1247.41	309749
1242	305553
1236.58	302518
1231.16	301762
1225.72	299018
1220.29	297220
1214.85	297079
1209.4	303539
1203.94	313411
1198.49	323389
1193.02	329418
1187.55	339144
1182.07	353030
1176.59	367895
1171.1	379219
1165.61	391508
1160.11	399020
1154.61	405437
1149.09	405795
1143.58	398649
1138.05	384346
1132.53	370022
1126.99	354944
1121.45	333815
1115.91	312534
1110.35	293064
1104.8	278518
1099.23	265539
1093.66	253150
1088.09	242223
1082.51	235545
1076.92	229062
1071.33	225356
1065.73	219205
1060.12	215316
1054.51	210728
1048.9	204454
1043.28	198605
1037.65	192825
1032.01	189520
1026.37	187375
1020.73	184745
1015.07	183068
1009.42	181092
1003.75	182416
998.08	188446
992.404	185716
986.722	188423
981.033	193620
975.338	196141
969.638	197192
963.931	199361
958.218	203722
952.499	207807
946.774	208950
941.043	209396
935.306	206039
929.562	197808
923.813	188376
918.058	181857
912.296	175758
906.528	171751
900.754	172199
894.974	172419
889.188	174306
883.395	174637
877.596	173688
871.791	171815
865.979	169564
860.162	169688
854.338	170363
848.508	170174
842.672	170921
836.829	168984
830.979	167360
825.125	163524
819.264	158919
813.396	155637
807.521	152853
801.641	151019
795.754	148072
789.86	147190
783.961	144384
778.056	140614
772.143	140483
766.225	141187
760.299	141090
754.368	139139
748.43	139215
742.485	137749
736.535	137571
730.577	138297
724.614	139216
718.644	138313
712.667	138310
706.684	139400
700.694	142436
694.698	142640
688.695	144600
682.687	146286
676.671	146803
670.648	146051
664.619	145853
658.584	146296
652.542	144474
646.493	144387
640.438	143124
634.376	142931
628.308	141653
622.233	142422
616.151	141166
610.062	139671
603.968	137060
597.866	135933
591.758	134951
585.643	134378
579.521	133759
573.393	134218
567.258	134590
561.115	135443
554.967	135129
548.812	137073
542.649	140034
536.48	146118
530.305	152887
524.122	194049
517.933	362166
511.736	159435
505.534	150731
499.324	149022
493.107	150837
486.884	151303
480.653	148935
474.416	148232
468.172	149691
461.921	150839
455.663	149716
449.397	154016
443.126	154548
436.848	156050
430.562	159694
424.269	163385
417.969	167525
411.662	171492
405.349	169901
400.293	169837