Folder: Determination-of-Trace-Organic-Contaminant-Concentration-via-Machine-Classification-of-Raman-Spectra/Finalized Code/CNN Models/RAMAN Data MITACs/Bulk Carbon Ring Identification

Note: README.md
# Determination-of-Trace-Organic-Contaminant-Concentration-via-Machine-Classification-of-Raman-Spectra
Codebase and Data for "Determination-of-Trace-Organic-Contaminant-Concentration-via-Machine-Classification-of-Raman-Spectra."

Code files are given as Jupyter notebooks. Raw spectral data is availible as .csv files in all main folders under subfolder "RAMAN Data MITACs". Generated figures and raw data tables are availible in folder "Tables and Figures". Permission for usage of figures or diagrams is allowable with notification and citation. All files named "~Iterable.ipynb" in the folder "CNN Models" are CNN cross validation notebooks and are made to run on Niagara supercomputer(80 core), this may result in unintended phenomena if run on standard computers. "Key Functions.ipynb" contains all user defined functions for the codebase, a .py copy of this file is needed in all major folders. File paths used in "Key Functions.ipynb" may vary when downloaded, if this is the case please make the appropriate changes and update all the folders with "Key Functions.py".

File: Copy of PS.txt
#Wave		#Intensity
1724.09	7067.26
1720.17	7228.04
1716.25	7364.22
1712.33	7266.74
1708.4	7557.29
1704.47	7571.25
1700.54	7790.19
1696.6	7811.51
1692.66	8184
1688.71	8328.64
1684.77	8556.28
1680.82	8481.08
1676.86	8647.76
1672.91	8786.48
1668.95	8774.11
1664.98	8837.11
1661.01	9118.36
1657.04	9599.75
1653.07	10849.6
1649.09	11754.3
1645.11	11694.4
1641.13	11299.7
1637.14	10913.2
1633.15	10906.5
1629.16	11091.9
1625.16	11839.8
1621.16	13101.7
1617.16	14794.2
1613.15	18546.2
1609.14	30060.2
1605.12	57564.5
1601.11	64101.5
1597.09	34600.5
1593.06	22308.6
1589.04	20136.5
1585	34387.3
1580.97	28686.7
1576.93	16796
1572.89	13694.6
1568.85	12513.6
1564.8	11920.1
1560.75	11315.3
1556.69	11234.5
1552.64	11004.2
1548.57	10771.8
1544.51	10983.2
1540.44	10939.6
1536.37	10918.1
1532.29	10596.1
1528.21	10418.7
1524.13	10787.9
1520.05	10583.8
1515.96	10811
1511.87	10551.3
1507.77	10785.4
1503.67	10866.1
1499.57	11080.1
1495.46	12266
1491.35	11441.6
1487.24	10923.5
1483.12	10877.9
1479	10991.9
1474.87	11677.8
1470.75	11682.3
1466.62	12147.1
1462.48	13569.5
1458.34	16979.2
1454.2	22808.7
1450.05	23906
1445.91	22325.6
1441.75	19314
1437.6	16305.2
1433.44	13564.8
1429.27	11824
1425.11	11457.8
1420.94	11142.4
1416.76	11178.1
1412.58	11242.3
1408.4	11501.7
1404.22	11525.1
1400.03	11363
1395.84	11467.1
1391.64	11431.1
1387.44	12191.8
1383.24	13699.7
1379.03	14679.6
1374.82	15246.2
1370.61	15523.6
1366.39	15668.3
1362.17	15397.5
1357.95	15400.6
1353.72	15144.7
1349.48	15658.4
1345.25	16213.6
1341.01	17361.9
1336.77	19202.7
1332.52	20590.1
1328.27	21232.6
1324.01	20802.2
1319.75	19930.5
1315.49	18574.4
1311.23	18037.6
1306.96	17790.9
1302.68	17758.9
1298.41	17377.8
1294.13	17122.9
1289.84	16889.4
1285.55	16723.6
1281.26	16523.2
1276.96	16548
1272.66	16978
1268.36	17328.5
1264.05	17377.9
1259.74	17519.5
1255.43	17603.2
1251.11	17290.1
1246.79	17583.4
1242.46	17701.2
1238.13	17579.7
1233.79	17740.9
1229.46	18640.9
1225.11	19635.5
1220.77	20330.4
1216.42	21614.7
1212.06	26320.1
1207.71	33907.4
1203.34	41869.2
1198.98	46587.1
1194.61	46467.8
1190.24	40957.4
1185.86	41216.3
1181.48	45883.5
1177.09	29351.2
1172.7	20012.6
1168.31	18086.2
1163.91	18857.9
1159.51	27164.1
1155.11	36492.7
1150.7	21306.7
1146.29	13747.1
1141.87	11685.6
1137.45	10089.5
1133.02	9634.85
1128.59	9345.09
1124.16	9478.09
1119.72	10281.8
1115.28	11124.3
1110.84	11409.9
1106.39	12838.4
1101.93	14364.9
1097.48	14825.3
1093.02	14463.6
1088.55	14260.8
1084.08	14452.7
1079.61	14635.3
1075.13	14399.5
1070.65	15010.5
1066.16	14410.8
1061.67	13612.6
1057.18	13110.5
1052.68	13171.5
1048.18	14508.2
1043.67	18400.8
1039.16	30093
1034.64	66183.5
1030.12	73767.2
1025.6	35752.2
1021.07	18887.6
1016.54	15106.6
1012	20814.9
1007.46	61180.7
1002.92	275271
998.371	129590
993.818	39019.6
989.261	30093.4
984.699	17398.8
980.134	13217.4
975.563	10662.5
970.989	9437.99
966.411	9605.32
961.828	8981.5
957.241	7850.92
952.649	7552.99
948.054	7561.08
943.454	7582.13
938.85	7466.9
934.241	7269.78
929.628	7150.71
925.011	7439.42
920.39	7783.57
915.764	8654.39
911.133	10065.4
906.498	11087.1
901.859	10192.4
897.216	9215.75
892.568	8557.97
887.916	8828.11
883.259	8988.68
878.598	9219.42
873.933	9701.54
869.263	9692.35
864.589	9736.42
859.91	9361.17
855.227	9624.42
850.539	10127.2
845.847	11564.7
841.15	12083.7
836.449	10672.3
831.744	9219.07
827.034	8846.71
822.319	9296.56
817.601	10661.2
812.877	12712.6
808.149	14288.3
803.416	17762.8
798.68	23460.8
793.938	25019.5
789.191	23178.9
784.441	19256.4
779.687	16049.1
774.927	15048.5
770.162	15255.6
765.394	16418.5
760.62	17368.5
755.842	16922.6
751.06	15103.5
746.272	13878.6
741.48	13875.6
736.684	11510.4
731.883	9471.15
727.077	10265.9
722.268	9593.69
717.452	7309.83
712.633	7767.61
707.809	7481.51
702.979	7327.92
698.146	6513.38
693.309	5636.61
688.466	5466.7
683.618	5444.99
678.766	5404.86
673.909	5346.34
669.048	5451.77
664.182	5573.36
659.311	5578.2
654.435	5493.17
649.555	5626.59
644.669	5983.93
639.779	6301.9
634.885	7449.18
629.985	9358.36
625.082	18099.7
620.173	43904.3
615.26	12788.1
610.341	8273.56
605.418	7636.58

File: Copy of PureSoybeanOil.txt
#Wave		#Intensity
2964.05	150392
2955.52	163461
2946.97	176683
2938.42	227140
2929.85	245066
2921.28	248576
2912.69	256837
2904.1	269458
2895.49	274906
2886.88	259313
2878.25	225150
2869.62	209913
2860.98	219017
2852.32	246578
2843.66	159579
2834.99	99427.1
2826.31	78992.8
2817.61	69521.9
2808.91	64618.7
2800.2	62589.1
2791.48	61011.4
2782.74	59330
2774	58027
2765.25	57219.5
2756.49	57289.7
2747.72	58365.3
2738.93	61047.1
2730.14	63935.5
2721.34	63865.2
2712.53	61803
2703.71	59043.5
2694.88	57905.5
2686.03	57540.2
2677.18	57513
2668.32	56812.8
2659.45	56249.9
2650.56	55565
2641.67	55096.4
2632.77	54536
2623.86	53795.8
2614.93	53901.9
2606	53633.1
2597.06	53133.3
2588.1	52634.6
2579.14	52272.4
2570.17	51709
2561.18	51674.3
2552.19	51055.2
2543.18	51162.6
2534.17	50758.4
2525.14	50493
2516.11	50110.1
2507.06	49943.7
2498	49860.1
2488.94	49706.2
2479.86	49603.1
2470.77	49726.9
2461.67	49692.8
2452.56	49700.1
2443.44	49612.4
2434.31	49444
2425.17	49126.7
2416.02	49622.8
2406.86	48922.2
2397.69	49119.8
2388.51	48794.2
2379.31	48597
2370.11	48583
2360.9	48268.6
2351.67	48227.8
2342.44	48267.8
2333.19	48191.4
2323.93	48143
2314.66	48024.8
2305.38	48076.3
2296.09	47985
2286.79	48051.2
2277.48	47654.2
2268.16	47963.9
2258.83	47979.4
2249.48	47224.4
2240.13	47602.4
2230.76	47761.5
2221.39	47595.2
2212	47255.2
2202.6	47496.4
2193.19	47484.1
2183.77	47727.4
2174.34	47380
2164.89	47169.3
2155.44	47099
2145.97	46971
2136.5	46933.5
2127.01	47127.8
2117.51	47043.9
2108	47169.4
2098.48	46981.8
2088.95	46775.8
2079.4	46561.8
2069.85	46465.9
2060.28	46476.3
2050.7	46343.1
2041.11	45929.8
2031.51	45967.4
2021.9	45919.9
2012.28	45521.7
2002.64	45439.4
1992.99	45093.1
1983.34	45298.9
1973.67	45285.8
1963.98	44798.7
1954.29	44729.5
1944.59	44874.8
1934.87	44892.6
1925.14	44890.8
1915.4	44776.5
1905.65	44672.5
1895.88	44256.6
1886.11	44344.7
1876.32	43916.8
1866.52	43949
1856.71	43664.4
1846.89	43623.7
1837.06	43319.7
1827.21	43371.2
1817.35	43057.9
1807.48	43605.7
1797.6	43331.9
1787.7	43328.4
1777.8	43083.6
1767.88	43639.2
1757.95	45648.9
1748	49313.6
1738.05	47196.2
1728.08	43932.2
1718.1	42896.7
1708.11	42671.6
1698.1	43049
1688.09	42640.2
1678.06	43992.3
1668.02	52374.1
1657.96	79521.2
1647.9	59297.2
1637.82	46510.4
1627.73	43067.1
1617.62	41877.6
1607.51	41174.2
1597.38	40472.4
1587.24	40291.6
1577.08	39779.7
1566.91	39783
1556.73	39709
1546.54	39678
1536.34	39528.9
1526.12	39475.6
1515.89	39544.9
1505.65	40078.5
1495.39	40696.1
1485.12	42065.3
1474.84	46904.9
1464.54	58404.7
1454.24	70582.4
1443.92	81580.4
1433.58	73203.2
1423.23	49024.4
1412.88	42946.1
1402.5	41607.7
1392.12	39613.2
1381.72	39162.9
1371.3	39924.9
1360.88	39511.5
1350.44	39763.6
1339.99	40140.8
1329.52	42572.4
1319.04	47842.2
1308.55	56223.8
1298.04	59818.4
1287.53	50361.4
1276.99	53968.2
1266.45	59795.3
1255.89	54855.1
1245.31	45265.7
1234.73	39912.6
1224.13	37733.3
1213.51	36508.7
1202.88	35648.7
1192.24	35161.3
1181.59	34477.9
1170.92	33864.4
1160.24	33636.2
1149.54	33337.9
1138.83	33204.7
1128.11	34584
1117.37	35899.5
1106.62	37378.1
1095.85	39298.5
1085.07	43145.9
1074.28	44026.1
1063.47	42356.1
1052.65	36323.4
1041.82	35007.4
1030.97	34500.4
1020.1	34023.9
1009.23	32898.9
998.334	32457.6
987.428	32817.8
976.508	37563.8
965.572	36480.6
954.625	33192.5
943.66	32195.7
932.684	31768.2
921.691	31667.8
910.686	31979.2
899.664	31727.8
888.629	31800.8
877.58	31791.6
866.516	31622.2
855.438	30651.6
844.344	30979.3
833.236	30080.1
822.113	28153.8
810.977	27096.9
799.824	26439.1
788.658	26148.5
777.477	25912
766.281	25644
755.07	25534.8
743.846	25602.3
732.605	26074.3
721.352	25937.3
710.08	25104.6
698.797	24416
687.496	24042.9
676.182	23485.9
664.854	23419.7
653.508	23228.2
642.148	23230
630.775	23141.5
619.385	23135.4
607.98	23434.8
596.561	23632.2
585.127	23022
573.676	23019.4
562.211	22817
550.73	22406.2
539.234	22482.2
527.725	22622.8
516.199	22603.2
504.658	22352.5
493.102	22324.6
481.529	22315.7
469.941	22085.1
458.34	21929.7
446.721	21848.4
435.088	21692.8
423.439	21418