Folder: Determination-of-Trace-Organic-Contaminant-Concentration-via-Machine-Classification-of-Raman-Spectra/Finalized Code/Tuned Standard Models/RAMAN Data MITACs/TULSI/PMMA on Si substrate

Note: README.md
# Determination-of-Trace-Organic-Contaminant-Concentration-via-Machine-Classification-of-Raman-Spectra
Codebase and Data for "Determination-of-Trace-Organic-Contaminant-Concentration-via-Machine-Classification-of-Raman-Spectra."

Code files are given as Jupyter notebooks. Raw spectral data is availible as .csv files in all main folders under subfolder "RAMAN Data MITACs". Generated figures and raw data tables are availible in folder "Tables and Figures". Permission for usage of figures or diagrams is allowable with notification and citation. All files named "~Iterable.ipynb" in the folder "CNN Models" are CNN cross validation notebooks and are made to run on Niagara supercomputer(80 core), this may result in unintended phenomena if run on standard computers. "Key Functions.ipynb" contains all user defined functions for the codebase, a .py copy of this file is needed in all major folders. File paths used in "Key Functions.ipynb" may vary when downloaded, if this is the case please make the appropriate changes and update all the folders with "Key Functions.py".

File: Si-hydrophilic-blank with PMMA-2.txt
#Wave		#Intensity
1800.53	9553
1795.68	9560.76
1790.83	9379.42
1785.97	9331.62
1781.11	9071.51
1776.24	8834.92
1771.37	8792.87
1766.49	8671.81
1761.61	8556.08
1756.72	8702.83
1751.83	8325.28
1746.93	8431.28
1742.03	8448.21
1737.12	8203.89
1732.21	7992.98
1727.29	7896.37
1722.37	7842.93
1717.44	7605.2
1712.51	7304.85
1707.57	7345.4
1702.63	7358.15
1697.68	7177.17
1692.73	7200.1
1687.77	7130.08
1682.81	6987.46
1677.84	6744.9
1672.87	6728.08
1667.89	6758.8
1662.91	6589.62
1657.92	6540.54
1652.93	6496.54
1647.94	6328.1
1642.93	6403.81
1637.93	6223.35
1632.91	6070.57
1627.9	6081.79
1622.87	5966.61
1617.85	5898.68
1612.81	5764.12
1607.78	5896.62
1602.73	5624.12
1597.68	5677.58
1592.63	5526.51
1587.57	5496.3
1582.51	5453.85
1577.44	5237.16
1572.37	5423.15
1567.29	5224.06
1562.2	5130.63
1557.12	4978.69
1552.02	4949.19
1546.92	4953.91
1541.82	4758.71
1536.71	4839.1
1531.59	4676.03
1526.47	4763.62
1521.34	4615.51
1516.21	4467.7
1511.08	4615.78
1505.94	4480.36
1500.79	4374.23
1495.64	4290.04
1490.48	4336.33
1485.32	4300.55
1480.15	4163.7
1474.98	4161.85
1469.8	4184.02
1464.61	4179.73
1459.42	4091.51
1454.23	4080.12
1449.03	4166.88
1443.83	4095.66
1438.62	4024.58
1433.4	3891.6
1428.18	3937.66
1422.95	3895.51
1417.72	3751.16
1412.48	3785.32
1407.24	3729.2
1401.99	3597.31
1396.74	3534.38
1391.48	3660.9
1386.22	3423.09
1380.95	3615.57
1375.67	3383
1370.39	3452.57
1365.1	3364.25
1359.81	3428.98
1354.52	3331.46
1349.21	3283.42
1343.91	3336.29
1338.59	3215.73
1333.27	3179.65
1327.95	3181.03
1322.62	3231.44
1317.28	3092.81
1311.94	3066.3
1306.59	3086.4
1301.24	33222.2
1295.88	3119.48
1290.52	3039.67
1285.15	3059.69
1279.78	2968.52
1274.4	2898.36
1269.01	2768.25
1263.62	2961.58
1258.22	2887.01
1252.82	2741.19
1247.41	2800.46
1242	2820.53
1236.58	2741.81
1231.16	2651.78
1225.72	2724.63
1220.29	2657.69
1214.85	2654.92
1209.4	2720.67
1203.94	2585.48
1198.49	2669.4
1193.02	2614.23
1187.55	2654.71
1182.07	2515.59
1176.59	2512.95
1171.1	2533
1165.61	2525.81
1160.11	2443.96
1154.61	2518.25
1149.09	2560.78
1143.58	2472.37
1138.05	2478.78
1132.53	2381.63
1126.99	2469.08
1121.45	2493.44
1115.91	2401.05
1110.35	2416.46
1104.8	2458.7
1099.23	2380.05
1093.66	2471.4
1088.09	2417.45
1082.51	2274.42
1076.92	2394.53
1071.33	2436.51
1065.73	2362.8
1060.12	2446.9
1054.51	2377.77
1048.9	2404.06
1043.28	2439.15
1037.65	2668.73
1032.01	3006.04
1026.37	3329.4
1020.73	3570.51
1015.07	3745.06
1009.42	4163.37
1003.75	4668.66
998.08	5346.25
992.404	6655.98
986.722	8764.47
981.033	9820.56
975.338	10430.8
969.638	10692.5
963.931	11189.3
958.218	11728.5
952.499	12386.2
946.774	13420.8
941.043	14739.7
935.306	13756.6
929.562	9804.82
923.813	5099.56
918.058	4127.61
912.296	3900.74
906.528	3717.49
900.754	3666.1
894.974	3634.19
889.188	3492.66
883.395	3478.17
877.596	3446.55
871.791	3410.7
865.979	3394.19
860.162	3240.81
854.338	3250.16
848.508	3255.21
842.672	3179.21
836.829	3167.28
830.979	3263.87
825.125	3164.72
819.264	3265.35
813.396	3259.71
807.521	3281.63
801.641	3110.91
795.754	2940.55
789.86	2827.57
783.961	2868.82
778.056	2819.36
772.143	2715.29
766.225	2748.1
760.299	2669.52
754.368	2607.89
748.43	2586.2
742.485	2508.04
736.535	2425.86
730.577	2387.72
724.614	2512.42
718.644	2347.11
712.667	2527.8
706.684	2498.02
700.694	2563.87
694.698	2756.17
688.695	2838.18
682.687	3112.6
676.671	3351.25
670.648	3312.48
664.619	3329.51
658.584	3313.52
652.542	3301.67
646.493	3234.29
640.438	3041.69
634.376	3143.07
628.308	3379.57
622.233	3627.85
616.151	3560.45
610.062	3164.11
603.968	2934.02
597.866	2796.2
591.758	2599.6
585.643	2670.02
579.521	2709.78
573.393	2651.99
567.258	2906.69
561.115	3142.59
554.967	3513.57
548.812	4126.34
542.649	5531.42
536.48	8014.68
530.305	15264.1
524.122	74558.1
517.933	368212
511.736	26931
505.534	10223.7
499.324	5807.61
493.107	4524.06
486.884	3933.19
480.653	3455.48
474.416	3018.71
468.172	2851.95
461.921	2709.45
455.663	2682.59
449.397	3259.65
443.126	3664.78
436.848	4211.72
430.562	4470.37
424.269	4184.6
417.969	4217.5
411.662	4017.47
405.349	4022.87
400.293	4076.41

File: Si-hydrophilic-blank with PMMA-3.txt
#Wave		#Intensity
1800.53	7228.32
1795.68	6978.72
1790.83	6892.26
1785.97	6841.82
1781.11	6673.76
1776.24	6748.89
1771.37	6479.09
1766.49	6447.09
1761.61	6226.54
1756.72	6174.48
1751.83	6150.48
1746.93	6047.75
1742.03	5940.15
1737.12	5761.74
1732.21	5707.82
1727.29	5580.61
1722.37	5418.24
1717.44	5397.64
1712.51	5414.93
1707.57	5321.25
1702.63	5283.16
1697.68	5023.77
1692.73	4988.55
1687.77	4837.91
1682.81	4823
1677.84	4715.42
1672.87	4600.53
1667.89	4703.41
1662.91	4528.8
1657.92	4559.16
1652.93	4335.18
1647.94	4380.61
1642.93	4304.03
1637.93	4202.75
1632.91	4191.05
1627.9	3990.86
1622.87	3974.44
1617.85	3918.43
1612.81	3815.55
1607.78	3942.61
1602.73	3751.06
1597.68	3702.88
1592.63	3558.74
1587.57	3572.35
1582.51	3453.2
1577.44	3425.14
1572.37	3463.36
1567.29	3371.63
1562.2	3353.51
1557.12	3218.05
1552.02	3229.43
1546.92	3074.84
1541.82	3064.4
1536.71	3010.13
1531.59	2907.31
1526.47	2935.94
1521.34	2823.69
1516.21	2779.58
1511.08	2754.93
1505.94	2737.6
1500.79	2715.45
1495.64	2700.6
1490.48	2707.49
1485.32	2405.8
1480.15	2509.3
1474.98	2448.99
1469.8	2405.63
1464.61	2482.39
1459.42	2405.5
1454.23	2345.53
1449.03	2326.37
1443.83	2292.9
1438.62	2233.22
1433.4	2197.53
1428.18	2195.27
1422.95	2119.2
1417.72	2155.07
1412.48	2005.53
1407.24	2041.45
1401.99	1873.35
1396.74	1944.86
1391.48	1957.05
1386.22	1874.66
1380.95	1839.66
1375.67	1868.44
1370.39	1772.24
1365.1	1737.45
1359.81	1749.77
1354.52	1752.66
1349.21	1619.41
1343.91	1688.08
1338.59	1576.25
1333.27	1593.33
1327.95	1577.66
1322.62	1604.05
1317.28	1565.06
1311.94	1528.49
1306.59	1426.82
1301.24	1527.65
1295.88	1449.41
1290.52	1322.61
1285.15	1390.77
1279.78	1389.32
1274.4	1371.69
1269.01	1361.02
1263.62	1290.35
1258.22	1247.5
1252.82	1289.97
1247.41	1272.52
1242	1252.8
1236.58	1173.42
1231.16	1165.32
1225.72	1159.52
1220.29	1094.21
1214.85	1040.47
1209.4	1069.08
1203.94	1083.94
1198.49	1039.49
1193.02	1088.5
1187.55	975.898
1182.07	990.783
1176.59	998.825
1171.1	990.976
1165.61	974.08
1160.11	991.162
1154.61	1024.03
1149.09	986.824
1143.58	965.486
1138.05	971.232
1132.53	1003.98
1126.99	915.222
1121.45	871.579
1115.91	964.909
1110.35	948.202
1104.8	927.05
1099.23	901.468
1093.66	940.739
1088.09	897.336
1082.51	865.172
1076.92	857.576
1071.33	921.199
1065.73	849.098
1060.12	823.776
1054.51	916.064
1048.9	868.565
1043.28	1024.8
1037.65	1277.98
1032.01	1435.65
1026.37	1672.42
1020.73	1919.7
1015.07	2129.03
1009.42	2313.72
1003.75	2954.99
998.08	3474.18
992.404	4603.94
986.722	6675.19
981.033	7761.94
975.338	8251.95
969.638	8433.1
963.931	8951.85
958.218	9319.19
952.499	9870.69
946.774	10936.2
941.043	12116.6
935.306	11216.5
929.562	7564.33
923.813	3428.56
918.058	2493
912.296	2127.48
906.528	2110.1
900.754	2116.46
894.974	1864.46
889.188	1952.79
883.395	1918.47
877.596	1800.53
871.791	1772.88
865.979	1826.65
860.162	1685.65
854.338	1675.29
848.508	1590.25
842.672	1669.57
836.829	1672.03
830.979	1672.36
825.125	1727.95
819.264	1738.83
813.396	1664.85
807.521	1595.26
801.641	1553.34
795.754	1460.76
789.86	1313.48
783.961	1305.73
778.056	1236.9
772.143	1286.08
766.225	1206.89
760.299	1167.78
754.368	1118.26
748.43	1003.88
742.485	1036.29
736.535	1003.8
730.577	1023.61
724.614	1001.63
718.644	1029.73
712.667	1109.82
706.684	1023.33
700.694	1107.41
694.698	1172.62
688.695	1374.52
682.687	1511.78
676.671	1719.07
670.648	1872.18
664.619	1899.04
658.584	1709.34
652.542	1635.39
646.493	1576
640.438	1674.98
634.376	1654.68
628.308	1753.36
622.233	2005.46
616.151	1937.79
610.062	1622.94
603.968	1416.99
597.866	1270.63
591.758	1098.11
585.643	1131.5
579.521	1152.62
573.393	1212.28
567.258	1346.85
561.115	1533.81
554.967	1843.81
548.812	2634.31
542.649	3719.93
536.48	6094.22
530.305	12775.5
524.122	66234.9
517.933	322010
511.736	22474.3
505.534	7938.59
499.324	3965.93
493.107	2906.61
486.884	2333.52
480.653	1847.58
474.416	1612.11
468.172	1379.14
461.921	1162.61
455.663	1254.79
449.397	1767.88
443.126	2035.77
436.848	2568.65
430.562	2761.81
424.269	2634.16
417.969	2514.7
411.662	2448.76
405.349	2442.11
400.293	2467.51

File: Si-hydrophobic-blank with PMMA-2.txt
#Wave		#Intensity
1800.53	17528.8
1795.68	17712.4
1790.83	17725.5
1785.97	17928.1
1781.11	17725.9
1776.24	17922.9
1771.37	17601.1
1766.49	18032.5
1761.61	18175
1756.72	17846.1
1751.83	18105.5
1746.93	18135.6
1742.03	17952.4
1737.12	18023.2
1732.21	18164.7
1727.29	18442.6
1722.37	18363.4
1717.44	18352.5
1712.51	18318.9
1707.57	18459.3
1702.63	18815.9
1697.68	19186.9
1692.73	19929.1
1687.77	21252.2
1682.81	23322.5
1677.84	24652
1672.87	25050.1
1667.89	24572.2
1662.91	23303.5
1657.92	21148.8
1652.93	20207.6
1647.94	19562.1
1642.93	19002.4
1637.93	18988.2
1632.91	19150.2
1627.9	19391.3
1622.87	19247.8
1617.85	19146.6
1612.81	19522.8
1607.78	20533.2
1602.73	25966.2
1597.68	35118.2
1592.63	27186.8
1587.57	22661.8
1582.51	21267.3
1577.44	21636.1
1572.37	20530
1567.29	19921
1562.2	19325.5
1557.12	19259.4
1552.02	19420.6
1546.92	19352
1541.82	19154.3
1536.71	19222.5
1531.59	19446.2
1526.47	19521.1
1521.34	19316.7
1516.21	19386.7
1511.08	19558.3
1505.94	19482.7
1500.79	19375.7
1495.64	19882.5
1490.48	20168.6
1485.32	19733.4
1480.15	19677
1474.98	19955.2
1469.8	20228
1464.61	20661
1459.42	21227.4
1454.23	20879.8
1449.03	21116.8
1443.83	21544.7
1438.62	21147.6
1433.4	20469.7
1428.18	19931.4
1422.95	19706.1
1417.72	19888.1
1412.48	19884.2
1407.24	20108.3
1401.99	19931.1
1396.74	19955.5
1391.48	20190.5
1386.22	20611.8
1380.95	20644.9
1375.67	20286.2
1370.39	20215.8
1365.1	20030.1
1359.81	20282.2
1354.52	20315.3
1349.21	20200.4
1343.91	20118.6
1338.59	20018.1
1333.27	20039.5
1327.95	20042.1
1322.62	20156.8
1317.28	20579.1
1311.94	20613.7
1306.59	20264.1
1301.24	20143.1
1295.88	20052.5
1290.52	20377.4
1285.15	20639
1279.78	21277.5
1274.4	21701.8
1269.01	21873.3
1263.62	22543.1
1258.22	22600.3
1252.82	22090.7
1247.41	21773.2
1242	21483.8
1236.58	21112.4
1231.16	20805.9
1225.72	20763.6
1220.29	20618.3
1214.85	20750
1209.4	20787.7
1203.94	20686.1
1198.49	21453.2
1193.02	22405.4
1187.55	23332.8
1182.07	23312.9
1176.59	24627.9
1171.1	25364
1165.61	24564.9
1160.11	25446.6
1154.61	23439.7
1149.09	22599.9
1143.58	22043.8
1138.05	21664.6
1132.53	21423.4
1126.99	21254.7
1121.45	21153.8
1115.91	20875.7
1110.35	20643
1104.8	20941.5
1099.23	20677.8
1093.66	20604.6
1088.09	20699
1082.51	20753
1076.92	20789
1071.33	20747
1065.73	20620.6
1060.12	20425.6
1054.51	20763.4
1048.9	20894.3
1043.28	21261.8
1037.65	21937.9
1032.01	28520.9
1026.37	22937.3
1020.73	21423.1
1015.07	21633.7
1009.42	22697.3
1003.75	39849.5
998.08	35472.7
992.404	25229.6
986.722	25404.3
981.033	24108.4
975.338	22952.9
969.638	22987.4
963.931	23824.4
958.218	24781.5
952.499	23858.5
946.774	23044
941.043	22852.2
935.306	23062.1
929.562	22452.5
923.813	21666.6
918.058	21345.1
912.296	21456.2
906.528	21139.8
900.754	20869.4
894.974	20941.8
889.188	21001.1
883.395	20955
877.596	20893.9
871.791	21043
865.979	20973.3
860.162	21526.3
854.338	21896.4
848.508	21702.1
842.672	21471.9
836.829	22458.5
830.979	22274.8
825.125	21506.9
819.264	21339.4
813.396	20881.7
807.521	20749
801.641	21463.1
795.754	21949.5
789.86	21480.2
783.961	20946.6
778.056	21294.8
772.143	21261.3
766.225	20962.9
760.299	21158.7
754.368	21014.1
748.43	21213.6
742.485	21263.9
736.535	20994.1
730.577	21270.1
724.614	21545.5
718.644	21978.6
712.667	22040.1
706.684	22226.3
700.694	25669.8
694.698	31961.7
688.695	26285.8
682.687	22912.7
676.671	21458.3
670.648	21265.6
664.619	21161.9
658.584	21326.5
652.542	21249.7
646.493	21273.9
640.438	21080.1
634.376	21527.3
628.308	21971.3
622.233	23633.2
616.151	25905.4
610.062	22457.4
603.968	21918.4
597.866	22424.7
591.758	23502.3
585.643	22322.7
579.521	21381.5
573.393	21550.9
567.258	21740.3
561.115	22095.4
554.967	21593.5
548.812	21632.4
542.649	21659.2
536.48	21689.9
530.305	22669.5
524.122	28592.6
517.933	51343.7
511.736	23199.3
505.534	21960
499.324	21456.9
493.107	21385.2
486.884	21817.5
480.653	21617.7
474.416	21432.2
468.172	21255.1
461.921	21267.5
455.663	21536.3
449.397	21494.6
443.126	21456.9
436.848	21615.5
430.562	21920.3
424.269	21937.5
417.969	21913.2
411.662	22062.6
405.349	22008.5
400.293	22050

File: Si-hydrophobic-with PMMA-2.txt
#Wave		#Intensity
1800.53	107290
1795.68	106875
1790.83	107238
1785.97	107773
1781.11	107768
1776.24	108673
1771.37	108960
1766.49	108657
1761.61	108522
1756.72	108801
1751.83	109404
1746.93	110026
1742.03	109438
1737.12	110186
1732.21	110179
1727.29	111220
1722.37	112041
1717.44	112545
1712.51	111344
1707.57	111610
1702.63	111370
1697.68	112005
1692.73	111987
1687.77	113162
1682.81	113640
1677.84	114328
1672.87	115243
1667.89	117608
1662.91	119038
1657.92	120797
1652.93	122671
1647.94	124363
1642.93	126571
1637.93	129286
1632.91	132537
1627.9	137016
1622.87	142084
1617.85	150398
1612.81	158309
1607.78	168707
1602.73	179668
1597.68	193156
1592.63	205922
1587.57	218218
1582.51	231625
1577.44	246694
1572.37	255541
1567.29	263820
1562.2	274574
1557.12	286619
1552.02	299004
1546.92	308297
1541.82	316647
1536.71	327988
1531.59	337261
1526.47	345127
1521.34	347814
1516.21	351117
1511.08	353329
1505.94	360288
1500.79	362993
1495.64	366192
1490.48	370617
1485.32	374698
1480.15	372850
1474.98	365338
1469.8	355452
1464.61	342342
1459.42	332858
1454.23	326031
1449.03	315685
1443.83	307971
1438.62	301581
1433.4	298751
1428.18	297674
1422.95	297426
1417.72	304767
1412.48	306148
1407.24	306956
1401.99	306002
1396.74	298331
1391.48	290640
1386.22	282223
1380.95	274634
1375.67	271218
1370.39	271148
1365.1	274938
1359.81	274986
1354.52	272226
1349.21	265131
1343.91	261206
1338.59	259011
1333.27	256206
1327.95	251033
1322.62	247060
1317.28	245708
1311.94	249007
1306.59	253385
1301.24	258786
1295.88	264074
1290.52	270088
1285.15	276520
1279.78	279472
1274.4	274166
1269.01	267725
1263.62	263592
1258.22	256743
1252.82	249639
1247.41	245916
1242	246393
1236.58	245319
1231.16	244524
1225.72	243927
1220.29	242688
1214.85	244721
1209.4	251917
1203.94	258516
1198.49	263545
1193.02	268459
1187.55	277264
1182.07	295022
1176.59	311270
1171.1	325058
1165.61	336968
1160.11	343069
1154.61	342654
1149.09	336302
1143.58	333140
1138.05	324639
1132.53	308649
1126.99	292113
1121.45	280617
1115.91	264589
1110.35	249467
1104.8	236808
1099.23	224311
1093.66	212620
1088.09	203307
1082.51	198173
1076.92	191583
1071.33	187351
1065.73	182607
1060.12	179172
1054.51	172730
1048.9	165838
1043.28	161143
1037.65	157576
1032.01	156422
1026.37	155818
1020.73	153647
1015.07	150903
1009.42	150561
1003.75	154088
998.08	161109
992.404	156635
986.722	161251
981.033	161113
975.338	160264
969.638	162139
963.931	161447
958.218	162580
952.499	164179
946.774	166079
941.043	166484
935.306	168066
929.562	163560
923.813	157446
918.058	152968
912.296	149874
906.528	145377
900.754	144116
894.974	142859
889.188	145259
883.395	145591
877.596	145592
871.791	146210
865.979	146918
860.162	147713
854.338	145370
848.508	144717
842.672	144067
836.829	143267
830.979	141559
825.125	139093
819.264	137482
813.396	134878
807.521	130615
801.641	129291
795.754	127617
789.86	124124
783.961	124838
778.056	122916
772.143	120201
766.225	117891
760.299	117053
754.368	119451
748.43	119393
742.485	116574
736.535	116600
730.577	114418
724.614	116128
718.644	116342
712.667	115902
706.684	117719
700.694	122278
694.698	123582
688.695	125131
682.687	126850
676.671	128088
670.648	126430
664.619	125302
658.584	123163
652.542	121315
646.493	120290
640.438	121581
634.376	121570
628.308	120086
622.233	120082
616.151	119846
610.062	116400
603.968	117087
597.866	117037
591.758	115582
585.643	112717
579.521	110995
573.393	112275
567.258	111768
561.115	112564
554.967	114984
548.812	115936
542.649	117729
536.48	118939
530.305	124400
524.122	167616
517.933	349115
511.736	138668
505.534	128450
499.324	125767
493.107	126141
486.884	127728
480.653	127253
474.416	127574
468.172	127439
461.921	127179
455.663	128488
449.397	130398
443.126	127414
436.848	126639
430.562	128322
424.269	135040
417.969	141651
411.662	142141
405.349	142029
400.293	142607

File: Si-hydrophobic-with PMMA-4.txt
#Wave		#Intensity
1800.53	31107
1795.68	31387.5
1790.83	31169
1785.97	30810
1781.11	30554
1776.24	30543.9
1771.37	30441.8
1766.49	30911.4
1761.61	30839.6
1756.72	30633
1751.83	30574.4
1746.93	30330.2
1742.03	30937
1737.12	30507.8
1732.21	30198.5
1727.29	30588.3
1722.37	30206.1
1717.44	30529.4
1712.51	30312
1707.57	30619.3
1702.63	30354.3
1697.68	30645.7
1692.73	30486.7
1687.77	30724.6
1682.81	30743.8
1677.84	31113.7
1672.87	31325.1
1667.89	31681.1
1662.91	32408.5
1657.92	32632.8
1652.93	33265.5
1647.94	33919.2
1642.93	35029.4
1637.93	36636.8
1632.91	37766.6
1627.9	40236.1
1622.87	42593.9
1617.85	45870.1
1612.81	49973
1607.78	54877.8
1602.73	59631.9
1597.68	64482.3
1592.63	66980.6
1587.57	68615.2
1582.51	71819.3
1577.44	77108.7
1572.37	81646.5
1567.29	86172.5
1562.2	88706.5
1557.12	91174.1
1552.02	92454.1
1546.92	93450.8
1541.82	95520.5
1536.71	97349.5
1531.59	98950.9
1526.47	99980.1
1521.34	103088
1516.21	104164
1511.08	103539
1505.94	103537
1500.79	103548
1495.64	103212
1490.48	101533
1485.32	100002
1480.15	96937.9
1474.98	95193.2
1469.8	90087.4
1464.61	86487.5
1459.42	82969.3
1454.23	78715.4
1449.03	75085.3
1443.83	71407.5
1438.62	68807.2
1433.4	67013.8
1428.18	64923.7
1422.95	63797.3
1417.72	62240.3
1412.48	59493.5
1407.24	58328.4
1401.99	56665.4
1396.74	55368.1
1391.48	54965.5
1386.22	54079.1
1380.95	54056.4
1375.67	53880.3
1370.39	53501.8
1365.1	53001.6
1359.81	53617.1
1354.52	54372.3
1349.21	54628.2
1343.91	54665.5
1338.59	55241.3
1333.27	56176.2
1327.95	57380.1
1322.62	57680.3
1317.28	57520.2
1311.94	57770.4
1306.59	58757.9
1301.24	60905.9
1295.88	62031.9
1290.52	62371.3
1285.15	64603.6
1279.78	65833.1
1274.4	65952
1269.01	64876
1263.62	63116.5
1258.22	62218.3
1252.82	60780.6
1247.41	61734.4
1242	61072.4
1236.58	60907.7
1231.16	59965.6
1225.72	58917.6
1220.29	60094.6
1214.85	61280.4
1209.4	62232.9
1203.94	64545.6
1198.49	67298
1193.02	71497.3
1187.55	76149.6
1182.07	80769.3
1176.59	86509.6
1171.1	91947.6
1165.61	95366.9
1160.11	97131.6
1154.61	96970.9
1149.09	95825.8
1143.58	93999.5
1138.05	89585.4
1132.53	84354.4
1126.99	77427.4
1121.45	70568.7
1115.91	64875.6
1110.35	60624.4
1104.8	58807.2
1099.23	55173
1093.66	51177.6
1088.09	48212.8
1082.51	46436.1
1076.92	45830.2
1071.33	44130.8
1065.73	42519.3
1060.12	41100
1054.51	39674.7
1048.9	38881.6
1043.28	38087.9
1037.65	37640.8
1032.01	37896.9
1026.37	37766.2
1020.73	37944.4
1015.07	37472.7
1009.42	37813.4
1003.75	38507.1
998.08	41760.4
992.404	41455.2
986.722	43288
981.033	44648.7
975.338	45392.3
969.638	46062.2
963.931	45498.5
958.218	45587.3
952.499	46992.4
946.774	47929.2
941.043	47478.6
935.306	46699.1
929.562	43845.4
923.813	40067
918.058	38298.8
912.296	36754.6
906.528	35610.6
900.754	36380.8
894.974	36316
889.188	36100.8
883.395	35477.8
877.596	35276.7
871.791	35131.7
865.979	35730.1
860.162	35813.7
854.338	36290.2
848.508	36825.4
842.672	36331.7
836.829	36475.9
830.979	36789.9
825.125	35917.1
819.264	34557.9
813.396	32635.3
807.521	31079.1
801.641	30480.5
795.754	29602.1
789.86	29050.7
783.961	28213.6
778.056	27270.7
772.143	26409.8
766.225	27235
760.299	26739.3
754.368	26353.7
748.43	26337.8
742.485	26196.2
736.535	26253.6
730.577	26532.3
724.614	26021.5
718.644	25972.4
712.667	26314.9
706.684	26556.8
700.694	26935.2
694.698	27871
688.695	29285.7
682.687	29048.9
676.671	28582.9
670.648	28754.3
664.619	29206
658.584	28252.5
652.542	27605.9
646.493	27501.8
640.438	27330
634.376	27213.9
628.308	26347.6
622.233	26570.8
616.151	26687
610.062	26054.9
603.968	26314.3
597.866	27307.3
591.758	26678.5
585.643	25226.8
579.521	24569
573.393	25246.7
567.258	24839.7
561.115	24543
554.967	25835.7
548.812	26870.7
542.649	27853
536.48	28470
530.305	31602.3
524.122	63304.2
517.933	194372
511.736	38332.8
505.534	30007
499.324	27404.8
493.107	28139.3
486.884	27394.4
480.653	27563.9
474.416	27064.6
468.172	26072.1
461.921	26511.2
455.663	26318.8
449.397	26319.5
443.126	26508.7
436.848	26990.7
430.562	27289.5
424.269	28214.4
417.969	27979.7
411.662	27650.7
405.349	27972.9
400.293	28290.7